thisN,thisTrialN,thisRepN,letter,correct,sound_question_textbox.text,sound_question_resp.keys,sound_question_resp.rt,sound_question_resp.duration,key_resp.keys,key_resp.rt,key_resp.duration,nback_resp.keys,nback_resp.corr,Type,Span,Stimulus,Response,Letter,corrResp,key_resp_2.keys,key_resp_2.corr,key_resp_2.rt,key_resp_2.duration,key_resp_3.keys,key_resp_3.corr,key_resp_4.keys,key_resp_4.rt,key_resp_4.duration,sound_loop.thisRepN,sound_loop.thisTrialN,sound_loop.thisN,sound_loop.thisIndex,trials_3.thisRepN,trials_3.thisTrialN,trials_3.thisN,trials_3.thisIndex,trialloop.thisRepN,trialloop.thisTrialN,trialloop.thisN,trialloop.thisIndex,trialloop2.thisRepN,trialloop2.thisTrialN,trialloop2.thisN,trialloop2.thisIndex,thisRow.t,notes,random_2.started,random_2.stopped,start_sound.started,start_sound.stopped,sound_question.started,sound_question_text.started,sound_question_textbox.started,sound_question_resp.started,sound_question.stopped,sound_loop.sound_question_textbox.text,sound_loop.sound_question_resp.keys,sound_loop.sound_question_resp.rt,sound_loop.sound_question_resp.duration,nback_instruction.started,nback_inst.started,key_resp.started,nback_instruction.stopped,sound_loop.key_resp.keys,sound_loop.key_resp.rt,sound_loop.key_resp.duration,nback.started,nback_stim.started,nback_resp.started,nback_resp.stopped,nback.stopped,trials_3.nback_resp.keys,trials_3.nback_resp.corr,nback_stim.stopped,instructions.started,inst_text.started,key_resp_5.started,instructions.stopped,practice_warning.started,text_6.started,practice_warning.stopped,stimulus.started,text.started,key_resp_2.started,stimulus.stopped,trialloop.key_resp_2.keys,trialloop.key_resp_2.corr,trialloop.key_resp_2.rt,trialloop.key_resp_2.duration,ospan_stim.started,text_2.started,ospan_stim.stopped,Recall.started,text_3.started,key_resp_3.started,key_resp_4.started,Recall.stopped,sound_loop.key_resp_3.keys,sound_loop.key_resp_3.corr,sound_loop.key_resp_4.keys,sound_loop.key_resp_4.rt,sound_loop.key_resp_4.duration,trial_warning.started,text_5.started,trial_warning.stopped,trialloop2.key_resp_2.keys,trialloop2.key_resp_2.corr,trialloop2.key_resp_2.rt,trialloop2.key_resp_2.duration,participant,session,date,expName,psychopyVersion,frameRate,expStart,
0,0,0,A,None,binaural ,return,9.513145099859685,None,space,0.7046147002838552,None,None,1,,,,,,,,,,,,,,,,0,0,0,0,0,0,0,0,,,,,,,,,11.465381999965757,,0.07703790022060275,0.0771820000372827,0.5738710998557508,0.5739454999566078,0.6111019002273679,0.6345783998258412,0.6345783998258412,0.6345783998258412,10.155789100099355,binaural ,return,9.513145099859685,None,10.15588349988684,10.166550000198185,10.667171800043434,11.377328100148588,space,0.7046147002838552,None,11.442809599917382,12.899988899938762,12.899988899938762,13.417005899827927,13.883392999880016,None,1,,,,,,,,,,,,,,,,,,,,,,,,,,,,,,,,,,,,,1,001,2025-05-13_16h25.58.394,OperationSpanTask,2024.2.4,60,2025-05-13 16h26.02.045447 -0700,
1,1,0,R,None,binaural ,return,9.513145099859685,None,space,0.7046147002838552,None,None,1,,,,,,,,,,,,,,,,0,0,0,0,0,1,1,1,,,,,,,,,13.915275400038809,,,,,,,,,,,,,,,,,,,,,,13.897968200035393,15.382126899901778,15.382126899901778,15.882654699962586,16.371365199796855,None,1,16.397425000090152,,,,,,,,,,,,,,,,,,,,,,,,,,,,,,,,,,,,1,001,2025-05-13_16h25.58.394,OperationSpanTask,2024.2.4,60,2025-05-13 16h26.02.045447 -0700,
2,2,0,K,None,binaural ,return,9.513145099859685,None,space,0.7046147002838552,None,None,1,,,,,,,,,,,,,,,,0,0,0,0,0,2,2,2,,,,,,,,,16.397425000090152,,,,,,,,,,,,,,,,,,,,,,16.381080999970436,17.881354299839586,17.881354299839586,18.38249300001189,18.874316399917006,None,1,18.898432800080627,,,,,,,,,,,,,,,,,,,,,,,,,,,,,,,,,,,,1,001,2025-05-13_16h25.58.394,OperationSpanTask,2024.2.4,60,2025-05-13 16h26.02.045447 -0700,
3,3,0,R,None,binaural ,return,9.513145099859685,None,space,0.7046147002838552,None,None,1,,,,,,,,,,,,,,,,0,0,0,0,0,3,3,3,,,,,,,,,18.898432800080627,,,,,,,,,,,,,,,,,,,,,,18.882021800149232,20.41479569999501,20.41479569999501,20.947915900032967,21.390560999978334,None,1,,,,,,,,,,,,,,,,,,,,,,,,,,,,,,,,,,,,,1,001,2025-05-13_16h25.58.394,OperationSpanTask,2024.2.4,60,2025-05-13 16h26.02.045447 -0700,
4,4,0,P,None,binaural ,return,9.513145099859685,None,space,0.7046147002838552,None,None,1,,,,,,,,,,,,,,,,0,0,0,0,0,4,4,4,,,,,,,,,21.41385510005057,,,,,,,,,,,,,,,,,,,,,,21.40166739979759,22.897423800081015,22.897423800081015,23.396792800165713,23.88296280009672,None,1,,,,,,,,,,,,,,,,,,,,,,,,,,,,,,,,,,,,,1,001,2025-05-13_16h25.58.394,OperationSpanTask,2024.2.4,60,2025-05-13 16h26.02.045447 -0700,
5,5,0,K,space,binaural ,return,9.513145099859685,None,space,0.7046147002838552,None,None,0,,,,,,,,,,,,,,,,0,0,0,0,0,5,5,5,,,,,,,,,23.89651730004698,,,,,,,,,,,,,,,,,,,,,,23.885134499985725,25.396881400141865,25.396881400141865,25.91314940014854,26.390126400161535,None,0,,,,,,,,,,,,,,,,,,,,,,,,,,,,,,,,,,,,,1,001,2025-05-13_16h25.58.394,OperationSpanTask,2024.2.4,60,2025-05-13 16h26.02.045447 -0700,
6,6,0,A,None,binaural ,return,9.513145099859685,None,space,0.7046147002838552,None,None,1,,,,,,,,,,,,,,,,0,0,0,0,0,6,6,6,,,,,,,,,26.41287219990045,,,,,,,,,,,,,,,,,,,,,,26.400007599964738,27.89580410020426,27.89580410020426,28.39552230015397,28.88674020022154,None,1,,,,,,,,,,,,,,,,,,,,,,,,,,,,,,,,,,,,,1,001,2025-05-13_16h25.58.394,OperationSpanTask,2024.2.4,60,2025-05-13 16h26.02.045447 -0700,
7,7,0,B,None,binaural ,return,9.513145099859685,None,space,0.7046147002838552,None,None,1,,,,,,,,,,,,,,,,0,0,0,0,0,7,7,7,,,,,,,,,28.91118700010702,,,,,,,,,,,,,,,,,,,,,,28.89921690011397,30.37838920019567,30.37838920019567,30.878306800033897,31.36490540020168,None,1,31.376935999840498,,,,,,,,,,,,,,,,,,,,,,,,,,,,,,,,,,,,1,001,2025-05-13_16h25.58.394,OperationSpanTask,2024.2.4,60,2025-05-13 16h26.02.045447 -0700,
8,8,0,E,None,binaural ,return,9.513145099859685,None,space,0.7046147002838552,None,None,1,,,,,,,,,,,,,,,,0,0,0,0,0,8,8,8,,,,,,,,,31.376935999840498,,,,,,,,,,,,,,,,,,,,,,31.370546400081366,32.87819699989632,32.87819699989632,33.377718000207096,33.86575389979407,None,1,33.87758899992332,,,,,,,,,,,,,,,,,,,,,,,,,,,,,,,,,,,,1,001,2025-05-13_16h25.58.394,OperationSpanTask,2024.2.4,60,2025-05-13 16h26.02.045447 -0700,
9,9,0,A,space,binaural ,return,9.513145099859685,None,space,0.7046147002838552,None,None,0,,,,,,,,,,,,,,,,0,0,0,0,0,9,9,9,,,,,,,,,33.87758899992332,,,,,,,,,,,,,,,,,,,,,,33.869592499919236,35.377043900080025,35.377043900080025,35.87722550006583,36.3633380997926,None,0,36.37700610002503,,,,,,,,,,,,,,,,,,,,,,,,,,,,,,,,,,,,1,001,2025-05-13_16h25.58.394,OperationSpanTask,2024.2.4,60,2025-05-13 16h26.02.045447 -0700,
10,10,0,P,None,binaural ,return,9.513145099859685,None,space,0.7046147002838552,None,None,1,,,,,,,,,,,,,,,,0,0,0,0,0,10,10,10,,,,,,,,,36.37700610002503,,,,,,,,,,,,,,,,,,,,,,36.36568470019847,37.87691710004583,37.87691710004583,38.37709619989619,38.862956900149584,None,1,38.8762937001884,,,,,,,,,,,,,,,,,,,,,,,,,,,,,,,,,,,,1,001,2025-05-13_16h25.58.394,OperationSpanTask,2024.2.4,60,2025-05-13 16h26.02.045447 -0700,
11,11,0,B,None,binaural ,return,9.513145099859685,None,space,0.7046147002838552,None,None,1,,,,,,,,,,,,,,,,0,0,0,0,0,11,11,11,,,,,,,,,38.8762937001884,,,,,,,,,,,,,,,,,,,,,,38.86569690005854,40.393276600167155,40.393276600167155,40.90981560014188,41.38675680011511,None,1,,,,,,,,,,,,,,,,,,,,,,,,,,,,,,,,,,,,,1,001,2025-05-13_16h25.58.394,OperationSpanTask,2024.2.4,60,2025-05-13 16h26.02.045447 -0700,
12,12,0,A,space,binaural ,return,9.513145099859685,None,space,0.7046147002838552,None,None,0,,,,,,,,,,,,,,,,0,0,0,0,0,12,12,12,,,,,,,,,41.40976790012792,,,,,,,,,,,,,,,,,,,,,,41.395349100232124,42.90947060007602,42.90947060007602,43.42677289992571,43.88515970017761,None,0,,,,,,,,,,,,,,,,,,,,,,,,,,,,,,,,,,,,,1,001,2025-05-13_16h25.58.394,OperationSpanTask,2024.2.4,60,2025-05-13 16h26.02.045447 -0700,
13,13,0,N,None,binaural ,return,9.513145099859685,None,space,0.7046147002838552,None,None,1,,,,,,,,,,,,,,,,0,0,0,0,0,13,13,13,,,,,,,,,43.908601799979806,,,,,,,,,,,,,,,,,,,,,,43.89954710006714,45.391914300154895,45.391914300154895,45.90859409980476,46.4014988001436,None,1,,,,,,,,,,,,,,,,,,,,,,,,,,,,,,,,,,,,,1,001,2025-05-13_16h25.58.394,OperationSpanTask,2024.2.4,60,2025-05-13 16h26.02.045447 -0700,
14,14,0,B,space,binaural ,return,9.513145099859685,None,space,0.7046147002838552,None,None,0,,,,,,,,,,,,,,,,0,0,0,0,0,14,14,14,,,,,,,,,46.42537140008062,,,,,,,,,,,,,,,,,,,,,,46.40987760014832,47.92466539982706,47.92466539982706,48.425736099947244,48.88357979990542,None,0,,,,,,,,,,,,,,,,,,,,,,,,,,,,,,,,,,,,,1,001,2025-05-13_16h25.58.394,OperationSpanTask,2024.2.4,60,2025-05-13 16h26.02.045447 -0700,
15,15,0,T,None,binaural ,return,9.513145099859685,None,space,0.7046147002838552,None,None,1,,,,,,,,,,,,,,,,0,0,0,0,0,15,15,15,,,,,,,,,48.90720820007846,,,,,,,,,,,,,,,,,,,,,,48.89718690002337,50.407498199958354,50.407498199958354,50.9247020999901,51.3835776001215,None,1,,,,,,,,,,,,,,,,,,,,,,,,,,,,,,,,,,,,,1,001,2025-05-13_16h25.58.394,OperationSpanTask,2024.2.4,60,2025-05-13 16h26.02.045447 -0700,
16,16,0,B,None,binaural ,return,9.513145099859685,None,space,0.7046147002838552,None,None,1,,,,,,,,,,,,,,,,0,0,0,0,0,16,16,16,,,,,,,,,51.407544100191444,,,,,,,,,,,,,,,,,,,,,,51.391507000196725,52.923820700030774,52.923820700030774,53.424321400001645,53.88293439988047,None,1,,,,,,,,,,,,,,,,,,,,,,,,,,,,,,,,,,,,,1,001,2025-05-13_16h25.58.394,OperationSpanTask,2024.2.4,60,2025-05-13 16h26.02.045447 -0700,
17,17,0,K,None,binaural ,return,9.513145099859685,None,space,0.7046147002838552,None,None,1,,,,,,,,,,,,,,,,0,0,0,0,0,17,17,17,,,,,,,,,53.906919999979436,,,,,,,,,,,,,,,,,,,,,,53.890720000024885,55.42451889999211,55.42451889999211,55.93967910017818,56.38247440010309,None,1,,,,,,,,,,,,,,,,,,,,,,,,,,,,,,,,,,,,,1,001,2025-05-13_16h25.58.394,OperationSpanTask,2024.2.4,60,2025-05-13 16h26.02.045447 -0700,
18,18,0,Y,None,binaural ,return,9.513145099859685,None,space,0.7046147002838552,None,None,1,,,,,,,,,,,,,,,,0,0,0,0,0,18,18,18,,,,,,,,,56.40642850007862,,,,,,,,,,,,,,,,,,,,,,56.39756920002401,57.88954930007458,57.88954930007458,58.40501860016957,58.88224760023877,None,1,,,,,,,,,,,,,,,,,,,,,,,,,,,,,,,,,,,,,1,001,2025-05-13_16h25.58.394,OperationSpanTask,2024.2.4,60,2025-05-13 16h26.02.045447 -0700,
19,19,0,B,space,binaural ,return,9.513145099859685,None,space,0.7046147002838552,None,None,0,,,,,,,,,,,,,,,,0,0,0,0,0,19,19,19,,,,,,,,,58.90596440015361,,,,,,,,,,,,,,,,,,,,,,58.8905708999373,60.42216320009902,60.42216320009902,60.92298839986324,61.39162930008024,None,0,,,,,,,,,,,,,,,,,,,,,,,,,,,,,,,,,,,,,1,001,2025-05-13_16h25.58.394,OperationSpanTask,2024.2.4,60,2025-05-13 16h26.02.045447 -0700,
20,20,0,K,space,binaural ,return,9.513145099859685,None,space,0.7046147002838552,None,None,0,,,,,,,,,,,,,,,,0,0,0,0,0,20,20,20,,,,,,,,,61.404204099904746,,,,,,,,,,,,,,,,,,,,,,61.39465200016275,62.88827200001106,62.88827200001106,63.38847200013697,63.87593090021983,None,0,63.90278649982065,,,,,,,,,,,,,,,,,,,,,,,,,,,,,,,,,,,,1,001,2025-05-13_16h25.58.394,OperationSpanTask,2024.2.4,60,2025-05-13 16h26.02.045447 -0700,
21,21,0,L,None,binaural ,return,9.513145099859685,None,space,0.7046147002838552,None,None,1,,,,,,,,,,,,,,,,0,0,0,0,0,21,21,21,,,,,,,,,63.90278649982065,,,,,,,,,,,,,,,,,,,,,,63.88500060001388,65.38732369989157,65.38732369989157,65.88744009984657,66.39703459991142,None,1,,,,,,,,,,,,,,,,,,,,,,,,,,,,,,,,,,,,,1,001,2025-05-13_16h25.58.394,OperationSpanTask,2024.2.4,60,2025-05-13 16h26.02.045447 -0700,
22,22,0,P,space,binaural ,return,9.513145099859685,None,space,0.7046147002838552,None,None,0,,,,,,,,,,,,,,,,0,0,0,0,0,22,22,22,,,,,,,,,66.4206308000721,,,,,,,,,,,,,,,,,,,,,,66.4047308000736,67.88732479978353,67.88732479978353,68.38743289979175,68.89603189984336,None,0,,,,,,,,,,,,,,,,,,,,,,,,,,,,,,,,,,,,,1,001,2025-05-13_16h25.58.394,OperationSpanTask,2024.2.4,60,2025-05-13 16h26.02.045447 -0700,
23,23,0,L,None,binaural ,return,9.513145099859685,None,space,0.7046147002838552,None,None,1,,,,,,,,,,,,,,,,0,0,0,0,0,23,23,23,,,,,,,,,68.9202920999378,,,,,,,,,,,,,,,,,,,,,,68.90392549987882,70.3859013998881,70.3859013998881,70.88645729981363,71.3732234002091,None,1,71.38551660021767,,,,,,,,,,,,,,,,,,,,,,,,,,,,,,,,,,,,1,001,2025-05-13_16h25.58.394,OperationSpanTask,2024.2.4,60,2025-05-13 16h26.02.045447 -0700,
24,24,0,K,None,binaural ,return,9.513145099859685,None,space,0.7046147002838552,None,None,1,,,,,,,,,,,,,,,,0,0,0,0,0,24,24,24,,,,,,,,,71.38551660021767,,,,,,,,,,,,,,,,,,,,,,71.37644369993359,72.88584240013734,72.88584240013734,73.38499830011278,73.87583439983428,None,1,73.90144190005958,,,,,,,,,,,,,,,,,,,,,,,,,,,,,,,,,,,,1,001,2025-05-13_16h25.58.394,OperationSpanTask,2024.2.4,60,2025-05-13 16h26.02.045447 -0700,
25,25,0,P,space,binaural ,return,9.513145099859685,None,space,0.7046147002838552,None,None,0,,,,,,,,,,,,,,,,0,0,0,0,0,25,25,25,,,,,,,,,73.90144190005958,,,,,,,,,,,,,,,,,,,,,,73.88149549998343,75.40191469993442,75.40191469993442,75.91943220002577,76.37840950023383,None,0,,,,,,,,,,,,,,,,,,,,,,,,,,,,,,,,,,,,,1,001,2025-05-13_16h25.58.394,OperationSpanTask,2024.2.4,60,2025-05-13 16h26.02.045447 -0700,
26,26,0,B,None,binaural ,return,9.513145099859685,None,space,0.7046147002838552,None,None,1,,,,,,,,,,,,,,,,0,0,0,0,0,26,26,26,,,,,,,,,76.40178140019998,,,,,,,,,,,,,,,,,,,,,,76.38707230007276,77.90127060003579,77.90127060003579,78.43450480001047,78.87813059985638,None,1,,,,,,,,,,,,,,,,,,,,,,,,,,,,,,,,,,,,,1,001,2025-05-13_16h25.58.394,OperationSpanTask,2024.2.4,60,2025-05-13 16h26.02.045447 -0700,
27,27,0,K,None,binaural ,return,9.513145099859685,None,space,0.7046147002838552,None,None,1,,,,,,,,,,,,,,,,0,0,0,0,0,27,27,27,,,,,,,,,78.90094099985436,,,,,,,,,,,,,,,,,,,,,,78.88669250020757,80.41739240009338,80.41739240009338,80.93501769984141,81.39381409995258,None,1,,,,,,,,,,,,,,,,,,,,,,,,,,,,,,,,,,,,,1,001,2025-05-13_16h25.58.394,OperationSpanTask,2024.2.4,60,2025-05-13 16h26.02.045447 -0700,
28,28,0,A,None,binaural ,return,9.513145099859685,None,space,0.7046147002838552,None,None,1,,,,,,,,,,,,,,,,0,0,0,0,0,28,28,28,,,,,,,,,81.41694399993867,,,,,,,,,,,,,,,,,,,,,,81.40262660011649,82.90011270018294,82.90011270018294,83.40052670007572,83.88607050012797,None,1,,,,,,,,,,,,,,,,,,,,,,,,,,,,,,,,,,,,,1,001,2025-05-13_16h25.58.394,OperationSpanTask,2024.2.4,60,2025-05-13 16h26.02.045447 -0700,
0,0,0,,,binaural ,return,9.513145099859685,None,space,0.7046147002838552,None,,,Operation,Example,( 3 - 1 ) × 2 = 4,right,D,None,right,1,2.1779719996266067,None,,,,,,0,0,0,0,,,,,0,0,0,0,,,,,99.76130749983713,,,,,,,,,,,,,,,,,,,,,,,,,,,,,,83.8892147000879,83.89943110011518,84.90025989990681,97.67329529998824,97.67341679986566,97.69657790008932,99.68434110004455,99.75640949979424,99.99629979999736,99.99629979999736,102.1901655998081,right,1,2.1779719996266067,None,102.20574689982459,102.22854880010709,103.22202820004895,,,,,,,,,,,,,,,,,,1,001,2025-05-13_16h25.58.394,OperationSpanTask,2024.2.4,60,2025-05-13 16h26.02.045447 -0700,
1,1,0,,,binaural ,return,9.513145099859685,None,space,0.7046147002838552,None,,,Operation,Example,( 3 + 6 ) × 2 = 16,left,T,"['d', 't']",right,0,8.513573700096458,None,,,,,,0,0,0,0,,,,,0,1,1,1,,,,,103.26135020004585,,,,,,,,,,,,,,,,,,,,,,,,,,,,,,,,,,,,,103.24243760015815,103.51232599979267,103.51232599979267,112.03901789989322,right,0,8.513573700096458,None,112.04683789983392,112.06012410018593,113.07080869982019,,,,,,,,,,,,,,,,,,1,001,2025-05-13_16h25.58.394,OperationSpanTask,2024.2.4,60,2025-05-13 16h26.02.045447 -0700,
0,0,0,,,binaural ,return,9.513145099859685,None,space,0.7046147002838552,None,,,Operation,2,( 8 + 6 ) × 2 = 28,right,H,None,right,1,1.4994594999589026,None,None,0,space,1.8358851000666618,None,0,0,0,0,,,,,,,,,0,0,0,0,118.04255799995735,,,,,,,,,,,,,,,,,,,,,,,,,,,,,,,,,,,,,118.02344240015373,118.24166159983724,118.24166159983724,119.76857639988884,,,,,119.7828069999814,119.79063569987193,120.77009249990806,113.07708459999412,113.09472399996594,113.09472399996594,113.57650189986452,115.4363441998139,None,0,space,1.8358851000666618,None,115.43659349996597,115.45937700010836,117.95296450005844,right,1,1.4994594999589026,None,1,001,2025-05-13_16h25.58.394,OperationSpanTask,2024.2.4,60,2025-05-13 16h26.02.045447 -0700,
1,1,0,,,binaural ,return,9.513145099859685,None,space,0.7046147002838552,None,,,Operation,2,( 9 - 6 ) × 3 = 9,right,J,"['h', 'j']",right,1,0.008646999951452017,None,None,0,space,1.8358851000666618,None,0,0,0,0,,,,,,,,,0,1,1,1,120.8077406999655,,,,,,,,,,,,,,,,,,,,,,,,,,,,,,,,,,,,,120.78695200011134,121.09154090005904,121.09154090005904,121.103886900004,,,,,121.11791240004823,121.14117030007765,122.11756870010868,,,,,,,,,,,,,,right,1,0.008646999951452017,None,1,001,2025-05-13_16h25.58.394,OperationSpanTask,2024.2.4,60,2025-05-13 16h26.02.045447 -0700,
,,,,,,,,,,,,,,,,,,,,,,,,,,,,,,,,,,,,,,,,,,,,,,,,,,,,,,,,,,,,,,,,,,,,,,,,,,,,,,,,,,,,,,,,,,,,,122.12551179993898,122.1411373000592,122.1411373000592,122.60830570012331,,,,,,,,,,,,,,,,,,,,,
