Eligebloque,Tipo,Span,Estimulo,Respuesta,Letra,CorRec,ensayos.thisRepN,ensayos.thisTrialN,ensayos.thisN,ensayos.thisIndex,ensayosejem.thisRepN,ensayosejem.thisTrialN,ensayosejem.thisN,ensayosejem.thisIndex,span2.thisRepN,span2.thisTrialN,span2.thisN,span2.thisIndex,ensayos2.thisRepN,ensayos2.thisTrialN,ensayos2.thisN,ensayos2.thisIndex,span3.thisRepN,span3.thisTrialN,span3.thisN,span3.thisIndex,ensayos3.thisRepN,ensayos3.thisTrialN,ensayos3.thisN,ensayos3.thisIndex,span4.thisRepN,span4.thisTrialN,span4.thisN,span4.thisIndex,ensayos4.thisRepN,ensayos4.thisTrialN,ensayos4.thisN,ensayos4.thisIndex,span5.thisRepN,span5.thisTrialN,span5.thisN,span5.thisIndex,ensayos5.thisRepN,ensayos5.thisTrialN,ensayos5.thisN,ensayos5.thisIndex,span6.thisRepN,span6.thisTrialN,span6.thisN,span6.thisIndex,ensayos6.thisRepN,ensayos6.thisTrialN,ensayos6.thisN,ensayos6.thisIndex,text_4.started,text_4.stopped,text_6.started,text_6.stopped,text.started,text.stopped,key_resp_2.keys,key_resp_2.corr,key_resp_2.rt,key_resp_2.started,key_resp_2.stopped,text_2.started,text_2.stopped,text_3.started,text_3.stopped,key_resp_3.keys,key_resp_3.corr,key_resp_3.rt,key_resp_3.started,key_resp_3.stopped,key_resp_4.keys,key_resp_4.rt,key_resp_4.started,key_resp_4.stopped,text_5.started,text_5.stopped,participant,session,date,expName,psychopyVersion,frameRate,
Bloque1.xlsx,Operation,Ejemplo,( 3 - 1 ) × 2 = 4,right,D,None,0,0,0,0,0,0,0,0,,,,,,,,,,,,,,,,,,,,,,,,,,,,,,,,,,,,,,,,,17.665343200031202,None,59.24523880000925,None,61.643695100035984,None,right,1,3.060289899993222,61.643695100035984,None,64.77700810000533,None,,,,,,,,,,,,,,2 (jcm),001,2021_Apr_25_1132,OperationSpanTask,2021.1.2,60.05749903294543,
Bloque1.xlsx,Operation,Ejemplo,( 3 + 6 ) × 2 = 16,left,T,"['d', 't']",0,0,0,0,0,1,1,1,,,,,,,,,,,,,,,,,,,,,,,,,,,,,,,,,,,,,,,,,,,,,66.08178180002142,None,left,1,4.046403699961957,66.08178180002142,None,70.16504400002304,None,,,,,,,,,,,,,,2 (jcm),001,2021_Apr_25_1132,OperationSpanTask,2021.1.2,60.05749903294543,
Bloque1.xlsx,,,,,,,0,0,0,0,,,,,,,,,,,,,,,,,,,,,,,,,,,,,,,,,,,,,,,,,,,,,,,,,,,,,,,,,,71.16400049999356,None,"['d', 't']",1,"[3.0417166000115685, 8.514243000012357]",71.16400049999356,None,space,9.148101600003429,71.64923430001363,None,,,2 (jcm),001,2021_Apr_25_1132,OperationSpanTask,2021.1.2,60.05749903294543,
Bloque2.xlsx,Operation,Ejemplo,( 5 - 2 ) × 2 = 3,left,R,None,0,1,1,1,0,0,0,0,,,,,,,,,,,,,,,,,,,,,,,,,,,,,,,,,,,,,,,,,,,80.83636459999252,None,83.21450830000686,None,left,1,4.96732489997521,83.21450830000686,None,88.23407950002002,None,,,,,,,,,,,,,,2 (jcm),001,2021_Apr_25_1132,OperationSpanTask,2021.1.2,60.05749903294543,
Bloque2.xlsx,Operation,Ejemplo,( 4 + 1 ) × 1 = 5,right,V,"['r', 'v']",0,1,1,1,0,1,1,1,,,,,,,,,,,,,,,,,,,,,,,,,,,,,,,,,,,,,,,,,,,,,89.52066690003267,None,right,1,2.531356699997559,89.52066690003267,None,92.10045690002153,None,,,,,,,,,,,,,,2 (jcm),001,2021_Apr_25_1132,OperationSpanTask,2021.1.2,60.05749903294543,
Bloque2.xlsx,,,,,,,0,1,1,1,,,,,,,,,,,,,,,,,,,,,,,,,,,,,,,,,,,,,,,,,,,,,,,,,,,,,,,,,,93.10476160002872,None,"['r', 'v']",1,"[1.1525156000279821, 1.6194943000446074]",93.10476160002872,None,space,2.7937667000223882,93.588757599995,None,,,2 (jcm),001,2021_Apr_25_1132,OperationSpanTask,2021.1.2,60.05749903294543,
Bloque1.xlsx,Operation,2,( 4 - 1 ) × 1 = 6,left,S,None,,,,,,,,,0,0,0,0,0,0,0,0,,,,,,,,,,,,,,,,,,,,,,,,,,,,,,,,,,,,,98.31405370001448,None,left,1,2.5116021999856457,98.31405370001448,None,100.88431910000509,None,,,,,,,,,,,,96.46741320000729,None,2 (jcm),001,2021_Apr_25_1132,OperationSpanTask,2021.1.2,60.05749903294543,
Bloque1.xlsx,Operation,2,( 3 + 1 ) × 3 = 12,right,B,"['s', 'b']",,,,,,,,,0,0,0,0,0,1,1,1,,,,,,,,,,,,,,,,,,,,,,,,,,,,,,,,,,,,,102.16806400002679,None,right,1,2.035920599999372,102.16806400002679,None,104.24911780003458,None,,,,,,,,,,,,,,2 (jcm),001,2021_Apr_25_1132,OperationSpanTask,2021.1.2,60.05749903294543,
Bloque1.xlsx,,,,,,,,,,,,,,,0,0,0,0,,,,,,,,,,,,,,,,,,,,,,,,,,,,,,,,,,,,,,,,,,,,,,,,,,105.24717500002589,None,"['c', 'b']",0,"[2.1786310999887064, 2.7264047999633476]",105.24717500002589,None,space,4.412320900009945,105.72265760001028,None,,,2 (jcm),001,2021_Apr_25_1132,OperationSpanTask,2021.1.2,60.05749903294543,
Bloque2.xlsx,Operation,2,( 4 - 2 ) × 2 = 6,left,T,None,,,,,,,,,0,1,1,1,0,0,0,0,,,,,,,,,,,,,,,,,,,,,,,,,,,,,,,,,,,,,112.06272899999749,None,left,1,2.1243514999514446,112.06272899999749,None,114.22283059998881,None,,,,,,,,,,,,110.18514489999507,None,2 (jcm),001,2021_Apr_25_1132,OperationSpanTask,2021.1.2,60.05749903294543,
Bloque2.xlsx,Operation,2,( 4 - 1 ) × 4 = 12,right,N,"['t', 'n']",,,,,,,,,0,1,1,1,0,1,1,1,,,,,,,,,,,,,,,,,,,,,,,,,,,,,,,,,,,,,115.5174973999965,None,right,1,1.9702386999852024,115.5174973999965,None,117.55015840003034,None,,,,,,,,,,,,,,2 (jcm),001,2021_Apr_25_1132,OperationSpanTask,2021.1.2,60.05749903294543,
Bloque2.xlsx,,,,,,,,,,,,,,,0,1,1,1,,,,,,,,,,,,,,,,,,,,,,,,,,,,,,,,,,,,,,,,,,,,,,,,,,118.52610560000176,None,"['t', 'n']",1,"[1.0678288000053726, 1.8821309999912046]",118.52610560000176,None,space,2.2279420999693684,119.00724260002607,None,,,2 (jcm),001,2021_Apr_25_1132,OperationSpanTask,2021.1.2,60.05749903294543,
Bloque3.xlsx,Operation,2,( 3 + 6 ) × 4 = 36,right,P,None,,,,,,,,,0,2,2,2,0,0,0,0,,,,,,,,,,,,,,,,,,,,,,,,,,,,,,,,,,,,,123.10825440002372,None,right,1,2.126111299963668,123.10825440002372,None,125.28584480000427,None,,,,,,,,,,,,121.2743300999864,None,2 (jcm),001,2021_Apr_25_1132,OperationSpanTask,2021.1.2,60.05749903294543,
Bloque3.xlsx,Operation,2,( 5 - 1 ) × 1 = 6,left,R,"['p', 'r']",,,,,,,,,0,2,2,2,0,1,1,1,,,,,,,,,,,,,,,,,,,,,,,,,,,,,,,,,,,,,126.56274590000976,None,left,1,1.782080200035125,126.56274590000976,None,128.38024239998776,None,,,,,,,,,,,,,,2 (jcm),001,2021_Apr_25_1132,OperationSpanTask,2021.1.2,60.05749903294543,
Bloque3.xlsx,,,,,,,,,,,,,,,0,2,2,2,,,,,,,,,,,,,,,,,,,,,,,,,,,,,,,,,,,,,,,,,,,,,,,,,,129.39613680000184,None,"['p', 'r']",1,"[1.1131008000229485, 1.5647526999819092]",129.39613680000184,None,space,2.576846999989357,129.87235369998962,None,,,2 (jcm),001,2021_Apr_25_1132,OperationSpanTask,2021.1.2,60.05749903294543,
Bloque1.xlsx,Operation,3,( 4 + 2 ) × 2 = 8,left,C,None,,,,,,,,,,,,,,,,,0,0,0,0,0,0,0,0,,,,,,,,,,,,,,,,,,,,,,,,,,,,,134.3701636000187,None,left,1,1.9628589000203647,134.3701636000187,None,136.4042155999923,None,,,,,,,,,,,,132.52592949999962,None,2 (jcm),001,2021_Apr_25_1132,OperationSpanTask,2021.1.2,60.05749903294543,
Bloque1.xlsx,Operation,3,( 3 - 1 ) × 3 = 5,left,L,None,,,,,,,,,,,,,,,,,0,0,0,0,0,1,1,1,,,,,,,,,,,,,,,,,,,,,,,,,,,,,137.68688340001972,None,left,1,1.9314114000299014,137.68688340001972,None,139.6707643000409,None,,,,,,,,,,,,,,2 (jcm),001,2021_Apr_25_1132,OperationSpanTask,2021.1.2,60.05749903294543,
Bloque1.xlsx,Operation,3,( 5 - 1 ) × 5 = 20,right,G,"['c', 'l', 'g']",,,,,,,,,,,,,,,,,0,0,0,0,0,2,2,2,,,,,,,,,,,,,,,,,,,,,,,,,,,,,140.97710469999583,None,right,1,2.645739900006447,140.97710469999583,None,143.68041999998968,None,,,,,,,,,,,,,,2 (jcm),001,2021_Apr_25_1132,OperationSpanTask,2021.1.2,60.05749903294543,
Bloque1.xlsx,,,,,,,,,,,,,,,,,,,,,,,0,0,0,0,,,,,,,,,,,,,,,,,,,,,,,,,,,,,,,,,,,,,,,,,,144.67935630003922,None,"['c', 'l', 'g']",1,"[1.304753599979449, 2.30630439997185, 2.9265280999825336]",144.67935630003922,None,space,3.303436500020325,145.16665890003787,None,,,2 (jcm),001,2021_Apr_25_1132,OperationSpanTask,2021.1.2,60.05749903294543,
Bloque2.xlsx,Operation,3,( 4 - 2 ) × 3 = 9,left,J,None,,,,,,,,,,,,,,,,,0,1,1,1,0,0,0,0,,,,,,,,,,,,,,,,,,,,,,,,,,,,,150.37111900001764,None,left,1,2.180739099974744,150.37111900001764,None,152.60237040003994,None,,,,,,,,,,,,148.51316490001045,None,2 (jcm),001,2021_Apr_25_1132,OperationSpanTask,2021.1.2,60.05749903294543,
Bloque2.xlsx,Operation,3,( 3 + 8 ) × 5 = 53,left,M,None,,,,,,,,,,,,,,,,,0,1,1,1,0,1,1,1,,,,,,,,,,,,,,,,,,,,,,,,,,,,,153.89318790001562,None,left,1,2.669214599998668,153.89318790001562,None,156.61065149999922,None,,,,,,,,,,,,,,2 (jcm),001,2021_Apr_25_1132,OperationSpanTask,2021.1.2,60.05749903294543,
Bloque2.xlsx,Operation,3,( 4 + 7 ) × 2 = 22,right,B,"['j', 'm', 'b']",,,,,,,,,,,,,,,,,0,1,1,1,0,2,2,2,,,,,,,,,,,,,,,,,,,,,,,,,,,,,157.9132363999961,None,right,1,3.8180415999959223,157.9132363999961,None,161.76917640003376,None,,,,,,,,,,,,,,2 (jcm),001,2021_Apr_25_1132,OperationSpanTask,2021.1.2,60.05749903294543,
Bloque2.xlsx,,,,,,,,,,,,,,,,,,,,,,,0,1,1,1,,,,,,,,,,,,,,,,,,,,,,,,,,,,,,,,,,,,,,,,,,162.7720497000264,None,"['j', 'm', 'b']",1,"[1.6734176999889314, 2.0788240000256337, 2.5037675999919884]",162.7720497000264,None,space,3.883072099997662,163.25899840000784,None,,,2 (jcm),001,2021_Apr_25_1132,OperationSpanTask,2021.1.2,60.05749903294543,
Bloque3.xlsx,Operation,3,( 3 + 6 ) × 5 = 43,right,Z,None,,,,,,,,,,,,,,,,,0,2,2,2,0,0,0,0,,,,,,,,,,,,,,,,,,,,,,,,,,,,,169.05813329998637,None,left,0,2.141313000000082,169.05813329998637,None,171.25781420001294,None,,,,,,,,,,,,167.1803858000203,None,2 (jcm),001,2021_Apr_25_1132,OperationSpanTask,2021.1.2,60.05749903294543,
Bloque3.xlsx,Operation,3,( 6 - 1 ) × 3 = 19,right,F,None,,,,,,,,,,,,,,,,,0,2,2,2,0,1,1,1,,,,,,,,,,,,,,,,,,,,,,,,,,,,,172.55537610000465,None,left,0,1.629058399994392,172.55537610000465,None,174.24706800002605,None,,,,,,,,,,,,,,2 (jcm),001,2021_Apr_25_1132,OperationSpanTask,2021.1.2,60.05749903294543,
Bloque3.xlsx,Operation,3,( 4 + 2 ) × 4 = 23,right,T,"['z', 'f', 't']",,,,,,,,,,,,,,,,,0,2,2,2,0,2,2,2,,,,,,,,,,,,,,,,,,,,,,,,,,,,,175.53553799999645,None,left,0,2.5676108000334352,175.53553799999645,None,178.1516219000332,None,,,,,,,,,,,,,,2 (jcm),001,2021_Apr_25_1132,OperationSpanTask,2021.1.2,60.05749903294543,
Bloque3.xlsx,,,,,,,,,,,,,,,,,,,,,,,0,2,2,2,,,,,,,,,,,,,,,,,,,,,,,,,,,,,,,,,,,,,,,,,,179.15358500002185,None,"['z', 'f', 't']",1,"[2.0467132999910973, 2.4907608999637887, 2.870277200010605]",179.15358500002185,None,space,3.3449171999818645,179.62768840003991,None,,,2 (jcm),001,2021_Apr_25_1132,OperationSpanTask,2021.1.2,60.05749903294543,
Bloque1.xlsx,Operation,4,( 6 + 2 ) × 1 = 8,right,D,None,,,,,,,,,,,,,,,,,,,,,,,,,0,0,0,0,0,0,0,0,,,,,,,,,,,,,,,,,,,,,184.89274819998536,None,right,1,1.7958438000059687,184.89274819998536,None,186.73661860002903,None,,,,,,,,,,,,183.01720589998877,None,2 (jcm),001,2021_Apr_25_1132,OperationSpanTask,2021.1.2,60.05749903294543,
Bloque1.xlsx,Operation,4,( 4 - 3 ) × 5 = 5,left,V,None,,,,,,,,,,,,,,,,,,,,,,,,,0,0,0,0,0,1,1,1,,,,,,,,,,,,,,,,,,,,,188.0294472000096,None,right,0,2.0560463999863714,188.0294472000096,None,190.13121130003128,None,,,,,,,,,,,,,,2 (jcm),001,2021_Apr_25_1132,OperationSpanTask,2021.1.2,60.05749903294543,
Bloque1.xlsx,Operation,4,( 3 - 1 ) × 5 = 10,left,M,None,,,,,,,,,,,,,,,,,,,,,,,,,0,0,0,0,0,2,2,2,,,,,,,,,,,,,,,,,,,,,191.43496919999598,None,right,0,1.5979956000228412,191.43496919999598,None,193.0838509000023,None,,,,,,,,,,,,,,2 (jcm),001,2021_Apr_25_1132,OperationSpanTask,2021.1.2,60.05749903294543,
Bloque1.xlsx,Operation,4,( 6 - 1 ) × 1 = 6,left,P,"['d', 'v', 'm', 'p']",,,,,,,,,,,,,,,,,,,,,,,,,0,0,0,0,0,3,3,3,,,,,,,,,,,,,,,,,,,,,194.37021740002092,None,left,1,4.527538900030777,194.37021740002092,None,198.93715760001214,None,,,,,,,,,,,,,,2 (jcm),001,2021_Apr_25_1132,OperationSpanTask,2021.1.2,60.05749903294543,
Bloque1.xlsx,,,,,,,,,,,,,,,,,,,,,,,,,,,,,,,0,0,0,0,,,,,,,,,,,,,,,,,,,,,,,,,,,,,,,,,,199.94547979999334,None,"['d', 'v', 'm', 'p']",1,"[1.0276034999988042, 1.4302465000073425, 1.9105907999910414, 2.460948499967344]",199.94547979999334,None,space,2.8670380000257865,200.42302980000386,None,,,2 (jcm),001,2021_Apr_25_1132,OperationSpanTask,2021.1.2,60.05749903294543,
Bloque2.xlsx,Operation,4,( 3 - 2 ) × 1 = 1,right,G,None,,,,,,,,,,,,,,,,,,,,,,,,,0,1,1,1,0,0,0,0,,,,,,,,,,,,,,,,,,,,,205.19880930002546,None,right,1,1.750500899972394,205.19880930002546,None,206.98047090001637,None,,,,,,,,,,,,203.3248151000007,None,2 (jcm),001,2021_Apr_25_1132,OperationSpanTask,2021.1.2,60.05749903294543,
Bloque2.xlsx,Operation,4,( 4 + 9 ) × 2 = 26,right,B,None,,,,,,,,,,,,,,,,,,,,,,,,,0,1,1,1,0,1,1,1,,,,,,,,,,,,,,,,,,,,,208.30278670002008,None,right,1,2.5505797000369057,208.30278670002008,None,210.901917900017,None,,,,,,,,,,,,,,2 (jcm),001,2021_Apr_25_1132,OperationSpanTask,2021.1.2,60.05749903294543,
Bloque2.xlsx,Operation,4,( 3 + 9 ) × 1 = 12,right,Q,None,,,,,,,,,,,,,,,,,,,,,,,,,0,1,1,1,0,2,2,2,,,,,,,,,,,,,,,,,,,,,212.20683340000687,None,right,1,2.6637566999997944,212.20683340000687,None,214.90711100003682,None,,,,,,,,,,,,,,2 (jcm),001,2021_Apr_25_1132,OperationSpanTask,2021.1.2,60.05749903294543,
Bloque2.xlsx,Operation,4,( 6 + 2 ) × 2 = 16,right,R,"['g', 'b', 'q', 'r']",,,,,,,,,,,,,,,,,,,,,,,,,0,1,1,1,0,3,3,3,,,,,,,,,,,,,,,,,,,,,216.21082040003967,None,right,1,1.8950700999703258,216.21082040003967,None,218.14466540003195,None,,,,,,,,,,,,,,2 (jcm),001,2021_Apr_25_1132,OperationSpanTask,2021.1.2,60.05749903294543,
Bloque2.xlsx,,,,,,,,,,,,,,,,,,,,,,,,,,,,,,,0,1,1,1,,,,,,,,,,,,,,,,,,,,,,,,,,,,,,,,,,219.14533269999083,None,"['g', 'b', 'q', 'r']",1,"[1.2304682999965735, 1.678241399989929, 2.291871599969454, 2.8100192999700084]",219.14533269999083,None,space,3.1860891999676824,219.63394870003685,None,,,2 (jcm),001,2021_Apr_25_1132,OperationSpanTask,2021.1.2,60.05749903294543,
Bloque3.xlsx,Operation,4,( 4 + 8 ) × 1 = 11,right,S,None,,,,,,,,,,,,,,,,,,,,,,,,,0,2,2,2,0,0,0,0,,,,,,,,,,,,,,,,,,,,,224.73856750002597,None,left,0,3.6052756999852136,224.73856750002597,None,228.39430560002802,None,,,,,,,,,,,,222.85828700003913,None,2 (jcm),001,2021_Apr_25_1132,OperationSpanTask,2021.1.2,60.05749903294543,
Bloque3.xlsx,Operation,4,( 3 - 2 ) × 1 = 4,right,J,None,,,,,,,,,,,,,,,,,,,,,,,,,0,2,2,2,0,1,1,1,,,,,,,,,,,,,,,,,,,,,229.69150710001122,None,left,0,2.0790722999954596,229.69150710001122,None,231.82232159998966,None,,,,,,,,,,,,,,2 (jcm),001,2021_Apr_25_1132,OperationSpanTask,2021.1.2,60.05749903294543,
Bloque3.xlsx,Operation,4,( 1 + 4 ) × 2 = 10,right,N,None,,,,,,,,,,,,,,,,,,,,,,,,,0,2,2,2,0,2,2,2,,,,,,,,,,,,,,,,,,,,,233.13030449999496,None,right,1,1.7992767000105232,233.13030449999496,None,234.9794525000034,None,,,,,,,,,,,,,,2 (jcm),001,2021_Apr_25_1132,OperationSpanTask,2021.1.2,60.05749903294543,
Bloque3.xlsx,Operation,4,( 3 + 7 ) × 1 = 10,left,T,"['s', 'j', 'n', 't']",,,,,,,,,,,,,,,,,,,,,,,,,0,2,2,2,0,3,3,3,,,,,,,,,,,,,,,,,,,,,236.28251819999423,None,right,0,1.630307300016284,236.28251819999423,None,237.95695369999157,None,,,,,,,,,,,,,,2 (jcm),001,2021_Apr_25_1132,OperationSpanTask,2021.1.2,60.05749903294543,
Bloque3.xlsx,,,,,,,,,,,,,,,,,,,,,,,,,,,,,,,0,2,2,2,,,,,,,,,,,,,,,,,,,,,,,,,,,,,,,,,,238.98579700000118,None,"['s', 'j', 'n', 't']",1,"[1.2199519000132568, 1.899948599981144, 2.3974598000058904, 3.357714199984912]",238.98579700000118,None,space,4.084012400009669,239.46119940001518,None,,,2 (jcm),001,2021_Apr_25_1132,OperationSpanTask,2021.1.2,60.05749903294543,
Bloque1.xlsx,Operation,5,( 5 - 2 ) × 3 = 9,right,L,None,,,,,,,,,,,,,,,,,,,,,,,,,,,,,,,,,0,0,0,0,0,0,0,0,,,,,,,,,,,,,245.4615713999956,None,right,1,2.02140430000145,245.4615713999956,None,247.52266379998764,None,,,,,,,,,,,,243.60568290000083,None,2 (jcm),001,2021_Apr_25_1132,OperationSpanTask,2021.1.2,60.05749903294543,
Bloque1.xlsx,Operation,5,( 3 + 2 ) × 1 = 5,right,V,None,,,,,,,,,,,,,,,,,,,,,,,,,,,,,,,,,0,0,0,0,0,1,1,1,,,,,,,,,,,,,248.8093474000343,None,right,1,1.509793900011573,248.8093474000343,None,250.36400529998355,None,,,,,,,,,,,,,,2 (jcm),001,2021_Apr_25_1132,OperationSpanTask,2021.1.2,60.05749903294543,
Bloque1.xlsx,Operation,5,( 3 + 9 ) × 3 = 36,right,X,None,,,,,,,,,,,,,,,,,,,,,,,,,,,,,,,,,0,0,0,0,0,2,2,2,,,,,,,,,,,,,251.64942239999073,None,right,1,1.666981799993664,251.64942239999073,None,253.356975600007,None,,,,,,,,,,,,,,2 (jcm),001,2021_Apr_25_1132,OperationSpanTask,2021.1.2,60.05749903294543,
Bloque1.xlsx,Operation,5,( 5 + 3 ) × 1 = 8,right,P,None,,,,,,,,,,,,,,,,,,,,,,,,,,,,,,,,,0,0,0,0,0,3,3,3,,,,,,,,,,,,,254.65325590001885,None,right,1,1.5556126000010408,254.65325590001885,None,256.25078230001964,None,,,,,,,,,,,,,,2 (jcm),001,2021_Apr_25_1132,OperationSpanTask,2021.1.2,60.05749903294543,
Bloque1.xlsx,Operation,5,( 3 + 2 ) × 2 = 11,left,C,"['l', 'v', 'x', 'p', 'c']",,,,,,,,,,,,,,,,,,,,,,,,,,,,,,,,,0,0,0,0,0,4,4,4,,,,,,,,,,,,,257.5607780999853,None,left,1,2.8410779000259936,257.5607780999853,None,260.4502189999912,None,,,,,,,,,,,,,,2 (jcm),001,2021_Apr_25_1132,OperationSpanTask,2021.1.2,60.05749903294543,
Bloque1.xlsx,,,,,,,,,,,,,,,,,,,,,,,,,,,,,,,,,,,,,,,0,0,0,0,,,,,,,,,,,,,,,,,,,,,,,,,,261.44297840003856,None,"['l', 'v', 'x', 'p', 'c']",1,"[1.0025303000002168, 1.77341590001015, 2.4183440000051633, 3.123368400032632, 3.9516605000244454]",261.44297840003856,None,space,4.037320000003092,261.9311680000392,None,,,2 (jcm),001,2021_Apr_25_1132,OperationSpanTask,2021.1.2,60.05749903294543,
Bloque2.xlsx,Operation,5,( 5 + 3 ) × 2 = 20,left,R,None,,,,,,,,,,,,,,,,,,,,,,,,,,,,,,,,,0,1,1,1,0,0,0,0,,,,,,,,,,,,,267.88473550003255,None,left,1,3.5629543000250123,267.88473550003255,None,271.5047770999954,None,,,,,,,,,,,,266.0185494000325,None,2 (jcm),001,2021_Apr_25_1132,OperationSpanTask,2021.1.2,60.05749903294543,
Bloque2.xlsx,Operation,5,( 4 - 2 ) × 4 = 8,right,M,None,,,,,,,,,,,,,,,,,,,,,,,,,,,,,,,,,0,1,1,1,0,1,1,1,,,,,,,,,,,,,272.8009062000201,None,right,1,1.5592622000258416,272.8009062000201,None,274.3948930000188,None,,,,,,,,,,,,,,2 (jcm),001,2021_Apr_25_1132,OperationSpanTask,2021.1.2,60.05749903294543,
Bloque2.xlsx,Operation,5,( 4 + 8 ) × 4 = 48,right,T,None,,,,,,,,,,,,,,,,,,,,,,,,,,,,,,,,,0,1,1,1,0,2,2,2,,,,,,,,,,,,,275.69401119998656,None,right,1,1.6264258000301197,275.69401119998656,None,277.3633492999943,None,,,,,,,,,,,,,,2 (jcm),001,2021_Apr_25_1132,OperationSpanTask,2021.1.2,60.05749903294543,
Bloque2.xlsx,Operation,5,( 5 - 5 ) × 3 = 4,left,Z,None,,,,,,,,,,,,,,,,,,,,,,,,,,,,,,,,,0,1,1,1,0,3,3,3,,,,,,,,,,,,,278.66308490000665,None,left,1,2.823634599975776,278.66308490000665,None,281.52594700001646,None,,,,,,,,,,,,,,2 (jcm),001,2021_Apr_25_1132,OperationSpanTask,2021.1.2,60.05749903294543,
Bloque2.xlsx,Operation,5,( 3 - 2 ) × 4 = 6,left,B,"['r', 'm', 't', 'z', 'b']",,,,,,,,,,,,,,,,,,,,,,,,,,,,,,,,,0,1,1,1,0,4,4,4,,,,,,,,,,,,,282.81645189999836,None,left,1,2.003112100006547,282.81645189999836,None,284.8775102000218,None,,,,,,,,,,,,,,2 (jcm),001,2021_Apr_25_1132,OperationSpanTask,2021.1.2,60.05749903294543,
Bloque2.xlsx,,,,,,,,,,,,,,,,,,,,,,,,,,,,,,,,,,,,,,,0,1,1,1,,,,,,,,,,,,,,,,,,,,,,,,,,285.87124210002366,None,"['r', 'm', 't', 'z', 'b']",1,"[1.306265999970492, 2.1207438999554142, 2.786867299990263, 3.554794999945443, 4.210528799972963]",285.87124210002366,None,space,4.310554799973033,286.3547722999938,None,,,2 (jcm),001,2021_Apr_25_1132,OperationSpanTask,2021.1.2,60.05749903294543,
Bloque3.xlsx,Operation,5,( 5 + 5 ) × 2 = 21,left,N,None,,,,,,,,,,,,,,,,,,,,,,,,,,,,,,,,,0,2,2,2,0,0,0,0,,,,,,,,,,,,,292.58541990001686,None,left,1,1.6421565000200644,292.58541990001686,None,294.2865047000232,None,,,,,,,,,,,,290.70816919999197,None,2 (jcm),001,2021_Apr_25_1132,OperationSpanTask,2021.1.2,60.05749903294543,
Bloque3.xlsx,Operation,5,( 4 - 3 ) × 1 = 1,right,G,None,,,,,,,,,,,,,,,,,,,,,,,,,,,,,,,,,0,2,2,2,0,1,1,1,,,,,,,,,,,,,295.58243579999544,None,right,1,2.9113922999822535,295.58243579999544,None,298.544690300012,None,,,,,,,,,,,,,,2 (jcm),001,2021_Apr_25_1132,OperationSpanTask,2021.1.2,60.05749903294543,
Bloque3.xlsx,Operation,5,( 3 - 2 ) × 5 = 5,right,V,None,,,,,,,,,,,,,,,,,,,,,,,,,,,,,,,,,0,2,2,2,0,2,2,2,,,,,,,,,,,,,299.8359706000192,None,right,1,3.0286837000166997,299.8359706000192,None,302.9035867000348,None,,,,,,,,,,,,,,2 (jcm),001,2021_Apr_25_1132,OperationSpanTask,2021.1.2,60.05749903294543,
Bloque3.xlsx,Operation,5,( 3 + 8 ) × 2 = 17,left,X,None,,,,,,,,,,,,,,,,,,,,,,,,,,,,,,,,,0,2,2,2,0,3,3,3,,,,,,,,,,,,,304.20829500001855,None,left,1,1.7743371999822557,304.20829500001855,None,306.0344584999839,None,,,,,,,,,,,,,,2 (jcm),001,2021_Apr_25_1132,OperationSpanTask,2021.1.2,60.05749903294543,
Bloque3.xlsx,Operation,5,( 5 - 5 ) × 1 = 0,right,S,"['n', 'g', 'v', 'x', 's']",,,,,,,,,,,,,,,,,,,,,,,,,,,,,,,,,0,2,2,2,0,4,4,4,,,,,,,,,,,,,307.32813310000347,None,right,1,3.9411069999914616,307.32813310000347,None,311.30929220002145,None,,,,,,,,,,,,,,2 (jcm),001,2021_Apr_25_1132,OperationSpanTask,2021.1.2,60.05749903294543,
Bloque3.xlsx,,,,,,,,,,,,,,,,,,,,,,,,,,,,,,,,,,,,,,,0,2,2,2,,,,,,,,,,,,,,,,,,,,,,,,,,312.3091766000143,None,"['n', 'g', 'v', 'x', 'c']",0,"[1.4933552999864332, 2.0682501000119373, 2.524517600017134, 4.604322500003036, 5.259756100014783]",312.3091766000143,None,space,5.5821730000316165,312.7975090999971,None,,,2 (jcm),001,2021_Apr_25_1132,OperationSpanTask,2021.1.2,60.05749903294543,
Bloque1.xlsx,Operation,6,( 5 + 4 ) × 5 = 45,right,J,None,,,,,,,,,,,,,,,,,,,,,,,,,,,,,,,,,,,,,,,,,0,0,0,0,0,0,0,0,,,,,320.30887820001226,None,right,1,2.520102999988012,320.30887820001226,None,322.85585829999764,None,,,,,,,,,,,,318.463026500016,None,2 (jcm),001,2021_Apr_25_1132,OperationSpanTask,2021.1.2,60.05749903294543,
Bloque1.xlsx,Operation,6,( 3 - 3 ) × 2 = 0,right,P,None,,,,,,,,,,,,,,,,,,,,,,,,,,,,,,,,,,,,,,,,,0,0,0,0,0,1,1,1,,,,,324.1632571000373,None,right,1,3.2104755000327714,324.1632571000373,None,327.42029660003027,None,,,,,,,,,,,,,,2 (jcm),001,2021_Apr_25_1132,OperationSpanTask,2021.1.2,60.05749903294543,
Bloque1.xlsx,Operation,6,( 4 - 3 ) × 3 = 3,right,K,None,,,,,,,,,,,,,,,,,,,,,,,,,,,,,,,,,,,,,,,,,0,0,0,0,0,2,2,2,,,,,328.71838690002915,None,right,1,2.307244100025855,328.71838690002915,None,331.07444810000015,None,,,,,,,,,,,,,,2 (jcm),001,2021_Apr_25_1132,OperationSpanTask,2021.1.2,60.05749903294543,
Bloque1.xlsx,Operation,6,( 3 + 7 ) × 5 = 50,right,L,None,,,,,,,,,,,,,,,,,,,,,,,,,,,,,,,,,,,,,,,,,0,0,0,0,0,3,3,3,,,,,332.35524609999266,None,right,1,1.4506319999927655,332.35524609999266,None,333.86016530002235,None,,,,,,,,,,,,,,2 (jcm),001,2021_Apr_25_1132,OperationSpanTask,2021.1.2,60.05749903294543,
Bloque1.xlsx,Operation,6,( 4 + 7 ) × 3 = 30,left,T,None,,,,,,,,,,,,,,,,,,,,,,,,,,,,,,,,,,,,,,,,,0,0,0,0,0,4,4,4,,,,,335.1595998000121,None,left,1,2.0251360000111163,335.1595998000121,None,337.2141230000416,None,,,,,,,,,,,,,,2 (jcm),001,2021_Apr_25_1132,OperationSpanTask,2021.1.2,60.05749903294543,
Bloque1.xlsx,Operation,6,( 5 - 4 ) × 4 = 4,right,D,"['j', 'p', 'k', 'l', 't', 'd']",,,,,,,,,,,,,,,,,,,,,,,,,,,,,,,,,,,,,,,,,0,0,0,0,0,5,5,5,,,,,338.5302692000405,None,right,1,3.7464786999626085,338.5302692000405,None,342.3197325000074,None,,,,,,,,,,,,,,2 (jcm),001,2021_Apr_25_1132,OperationSpanTask,2021.1.2,60.05749903294543,
Bloque1.xlsx,,,,,,,,,,,,,,,,,,,,,,,,,,,,,,,,,,,,,,,,,,,,,,,0,0,0,0,,,,,,,,,,,,,,,,,,343.33173949999036,None,"['j', 'p', 'k', 'l', 't', 'p']",0,"[1.2341334000229836, 1.6961347000324167, 2.2480174000374973, 3.0222111000330187, 4.394823000009637, 6.231237600033637]",343.33173949999036,None,space,8.585694299952593,343.8191390000284,None,,,2 (jcm),001,2021_Apr_25_1132,OperationSpanTask,2021.1.2,60.05749903294543,
Bloque2.xlsx,Operation,6,( 3 + 3 ) × 3 = 15,left,C,None,,,,,,,,,,,,,,,,,,,,,,,,,,,,,,,,,,,,,,,,,0,1,1,1,0,0,0,0,,,,,354.31265460001305,None,left,1,2.654742199985776,354.31265460001305,None,357.0206835999852,None,,,,,,,,,,,,352.44612790003885,None,2 (jcm),001,2021_Apr_25_1132,OperationSpanTask,2021.1.2,60.05749903294543,
Bloque2.xlsx,Operation,6,( 3 + 9 ) × 4 = 48,right,M,None,,,,,,,,,,,,,,,,,,,,,,,,,,,,,,,,,,,,,,,,,0,1,1,1,0,1,1,1,,,,,358.3198387000011,None,right,1,1.6164198000333272,358.3198387000011,None,359.9825864000013,None,,,,,,,,,,,,,,2 (jcm),001,2021_Apr_25_1132,OperationSpanTask,2021.1.2,60.05749903294543,
Bloque2.xlsx,Operation,6,( 3 - 3 ) × 5 = 1,left,B,None,,,,,,,,,,,,,,,,,,,,,,,,,,,,,,,,,,,,,,,,,0,1,1,1,0,2,2,2,,,,,361.287023700017,None,left,1,2.941638999967836,361.287023700017,None,364.26973810000345,None,,,,,,,,,,,,,,2 (jcm),001,2021_Apr_25_1132,OperationSpanTask,2021.1.2,60.05749903294543,
Bloque2.xlsx,Operation,6,( 4 - 3 ) × 3 = 6,left,R,None,,,,,,,,,,,,,,,,,,,,,,,,,,,,,,,,,,,,,,,,,0,1,1,1,0,3,3,3,,,,,365.59428520000074,None,left,1,3.609786100045312,365.59428520000074,None,369.2627977000084,None,,,,,,,,,,,,,,2 (jcm),001,2021_Apr_25_1132,OperationSpanTask,2021.1.2,60.05749903294543,
Bloque2.xlsx,Operation,6,( 3 + 4 ) × 2 = 14,right,Q,None,,,,,,,,,,,,,,,,,,,,,,,,,,,,,,,,,,,,,,,,,0,1,1,1,0,4,4,4,,,,,370.5415684999898,None,right,1,1.8212483000243083,370.5415684999898,None,372.38963290001266,None,,,,,,,,,,,,,,2 (jcm),001,2021_Apr_25_1132,OperationSpanTask,2021.1.2,60.05749903294543,
Bloque2.xlsx,Operation,6,( 4 + 3 ) × 4 = 28,right,S,"['c', 'm', 'b', 'r', 'q', 's']",,,,,,,,,,,,,,,,,,,,,,,,,,,,,,,,,,,,,,,,,0,1,1,1,0,5,5,5,,,,,373.7201078000362,None,right,1,3.157626000000164,373.7201078000362,None,376.9111208000104,None,,,,,,,,,,,,,,2 (jcm),001,2021_Apr_25_1132,OperationSpanTask,2021.1.2,60.05749903294543,
Bloque2.xlsx,,,,,,,,,,,,,,,,,,,,,,,,,,,,,,,,,,,,,,,,,,,,,,,0,1,1,1,,,,,,,,,,,,,,,,,,377.918020000041,None,"['c', 'm', 'b', 'r', 'q', 's']",1,"[1.760132400027942, 2.346880200027954, 3.0804169000475667, 3.8651873000198975, 4.912421300017741, 5.412419600004796]",377.918020000041,None,space,5.4547670999891125,378.4023489000392,None,,,2 (jcm),001,2021_Apr_25_1132,OperationSpanTask,2021.1.2,60.05749903294543,
Bloque3.xlsx,Operation,6,( 5 - 4 ) × 1 = 5,left,F,None,,,,,,,,,,,,,,,,,,,,,,,,,,,,,,,,,,,,,,,,,0,2,2,2,0,0,0,0,,,,,385.76413279998815,None,left,1,2.6672900999546982,385.76413279998815,None,388.4731588999857,None,,,,,,,,,,,,383.8768735000049,None,2 (jcm),001,2021_Apr_25_1132,OperationSpanTask,2021.1.2,60.05749903294543,
Bloque3.xlsx,Operation,6,( 3 + 4 ) × 4 = 23,left,V,None,,,,,,,,,,,,,,,,,,,,,,,,,,,,,,,,,,,,,,,,,0,2,2,2,0,1,1,1,,,,,389.76840330002597,None,left,1,1.8386601000092924,389.76840330002597,None,391.6574941999861,None,,,,,,,,,,,,,,2 (jcm),001,2021_Apr_25_1132,OperationSpanTask,2021.1.2,60.05749903294543,
Bloque3.xlsx,Operation,6,( 1 + 1 ) × 3 = 4,left,Z,None,,,,,,,,,,,,,,,,,,,,,,,,,,,,,,,,,,,,,,,,,0,2,2,2,0,2,2,2,,,,,392.9512718000333,None,left,1,2.3616660000407137,392.9512718000333,None,395.3476368000265,None,,,,,,,,,,,,,,2 (jcm),001,2021_Apr_25_1132,OperationSpanTask,2021.1.2,60.05749903294543,
Bloque3.xlsx,Operation,6,( 9 - 4 ) × 2 = 10,right,N,None,,,,,,,,,,,,,,,,,,,,,,,,,,,,,,,,,,,,,,,,,0,2,2,2,0,3,3,3,,,,,396.6418781999964,None,right,1,1.6999695000122301,396.6418781999964,None,398.39234950003447,None,,,,,,,,,,,,,,2 (jcm),001,2021_Apr_25_1132,OperationSpanTask,2021.1.2,60.05749903294543,
Bloque3.xlsx,Operation,6,( 3 + 5 ) × 1 = 3,left,P,None,,,,,,,,,,,,,,,,,,,,,,,,,,,,,,,,,,,,,,,,,0,2,2,2,0,4,4,4,,,,,399.71412720001535,None,left,1,4.362647700007074,399.71412720001535,None,404.1305921000312,None,,,,,,,,,,,,,,2 (jcm),001,2021_Apr_25_1132,OperationSpanTask,2021.1.2,60.05749903294543,
Bloque3.xlsx,Operation,6,( 5 + 3 ) × 3 = 24,right,X,"['f', 'v', 'z', 'n', 'p', 'x']",,,,,,,,,,,,,,,,,,,,,,,,,,,,,,,,,,,,,,,,,0,2,2,2,0,5,5,5,,,,,405.4367656999966,None,right,1,4.223788700008299,405.4367656999966,None,409.7033185000182,None,,,,,,,,,,,,,,2 (jcm),001,2021_Apr_25_1132,OperationSpanTask,2021.1.2,60.05749903294543,
Bloque3.xlsx,,,,,,,,,,,,,,,,,,,,,,,,,,,,,,,,,,,,,,,,,,,,,,,0,2,2,2,,,,,,,,,,,,,,,,,,410.70497920003254,None,"['f', 'v', 'z', 'n', 'p', 'x']",1,"[2.0768160999868996, 2.600895399984438, 3.463698400009889, 4.270652599981986, 6.210072899993975, 7.189933700021356]",410.70497920003254,None,space,7.583302499959245,411.18002740002703,None,,,2 (jcm),001,2021_Apr_25_1132,OperationSpanTask,2021.1.2,60.05749903294543,
