selectblock,thisN,thisTrialN,thisRepN,Type,Span,Stimulus,Response,Letter,corrResp,key_resp_2.keys,key_resp_2.corr,key_resp_2.rt,key_resp_2.duration,key_resp_3.keys,key_resp_3.corr,key_resp_3.rt,key_resp_3.duration,key_resp_4.keys,key_resp_4.rt,key_resp_4.duration,trials.thisRepN,trials.thisTrialN,trials.thisN,trials.thisIndex,trialloop.thisRepN,trialloop.thisTrialN,trialloop.thisN,trialloop.thisIndex,ospan2.thisRepN,ospan2.thisTrialN,ospan2.thisN,ospan2.thisIndex,trialloop2.thisRepN,trialloop2.thisTrialN,trialloop2.thisN,trialloop2.thisIndex,ospan3.thisRepN,ospan3.thisTrialN,ospan3.thisN,ospan3.thisIndex,trialloop3.thisRepN,trialloop3.thisTrialN,trialloop3.thisN,trialloop3.thisIndex,thisRow.t,notes,instructions.started,inst_text.started,key_resp_5.started,instructions.stopped,warning.started,text_6.started,warning.stopped,trial.started,text.started,key_resp_2.started,trial.stopped,trialloop.key_resp_2.keys,trialloop.key_resp_2.corr,trialloop.key_resp_2.rt,trialloop.key_resp_2.duration,mem.started,text_2.started,mem.stopped,Recall.started,text_3.started,key_resp_3.started,key_resp_4.started,Recall.stopped,trials.key_resp_3.keys,trials.key_resp_3.corr,trials.key_resp_3.rt,trials.key_resp_3.duration,trials.key_resp_4.keys,trials.key_resp_4.rt,trials.key_resp_4.duration,warning1.started,text_5.started,warning1.stopped,trialloop2.key_resp_2.keys,trialloop2.key_resp_2.corr,trialloop2.key_resp_2.rt,trialloop2.key_resp_2.duration,ospan2.key_resp_3.keys,ospan2.key_resp_3.corr,ospan2.key_resp_3.rt,ospan2.key_resp_3.duration,ospan2.key_resp_4.keys,ospan2.key_resp_4.rt,ospan2.key_resp_4.duration,text_2.stopped,text_5.stopped,trialloop3.key_resp_2.keys,trialloop3.key_resp_2.corr,trialloop3.key_resp_2.rt,trialloop3.key_resp_2.duration,ospan3.key_resp_3.keys,ospan3.key_resp_3.corr,ospan3.key_resp_3.rt,ospan3.key_resp_3.duration,ospan3.key_resp_4.keys,ospan3.key_resp_4.rt,ospan3.key_resp_4.duration,participant,session,date,expName,psychopyVersion,frameRate,expStart,
,,,,,,,,,,,,,,,,,,,,,,,,,,,,,,,,,,,,,,,,,,,,,,,0.008273100014775991,0.022038299590349197,1.0042527997866273,40.23242279980332,,,,,,,,,,,,,,,,,,,,,,,,,,,,,,,,,,,,,,,,,,,,,,,,,,,,,,3245241,001,2025-05-08_12h58.36.921,OperationSpanTask,2024.2.4,60.26605058232266,2025-05-08 12h58.48.542300 -0700,
Block1.xlsx,0,0,0,Operation,Example,( 3 - 1 ) × 2 = 4,right,D,None,right,1,3.204108100384474,None,,,,,,,,0,0,0,0,0,0,0,0,,,,,,,,,,,,,,,,,42.3078921996057,,,,,,40.24806369980797,40.2609778996557,42.24818869959563,42.297536599915475,42.53270349977538,42.53270349977538,45.75261709978804,right,1,3.204108100384474,None,45.763232099823654,45.77470739977434,46.76955629978329,,,,,,,,,,,,,,,,,,,,,,,,,,,,,,,,,,,,,,,,3245241,001,2025-05-08_12h58.36.921,OperationSpanTask,2024.2.4,60.26605058232266,2025-05-08 12h58.48.542300 -0700,
Block1.xlsx,1,1,0,Operation,Example,( 3 + 6 ) × 2 = 16,left,T,"['d', 't']",left,1,2.4019424999132752,None,,,,,,,,0,0,0,0,0,1,1,1,,,,,,,,,,,,,,,,,46.79393449984491,,,,,,,,,46.78459139959887,47.053160700015724,47.053160700015724,49.458048299886286,left,1,2.4019424999132752,None,49.46892669983208,49.48046679981053,50.472900399938226,,,,,,,,,,,,,,,,,,,,,,,,,,,,,,,,,,,,,,,,3245241,001,2025-05-08_12h58.36.921,OperationSpanTask,2024.2.4,60.26605058232266,2025-05-08 12h58.48.542300 -0700,
Block1.xlsx,0,0,0,,,,,,,,,,,"['d', 't']",1,"[2.2101413998752832, 3.0058741997927427]","[0.0794150996953249, 0.08672549994662404]",space,6.75938589964062,None,0,0,0,0,,,,,,,,,,,,,,,,,,,,,,,,,,,,,,,,,,,,,,,,,50.47575549967587,50.49103149957955,50.49103149957955,50.95934179984033,57.731357199605554,"['d', 't']",1,"[2.2101413998752832, 3.0058741997927427]","[0.0794150996953249, 0.08672549994662404]",space,6.75938589964062,None,,,,,,,,,,,,,,,,,,,,,,,,,,,,3245241,001,2025-05-08_12h58.36.921,OperationSpanTask,2024.2.4,60.26605058232266,2025-05-08 12h58.48.542300 -0700,
Block2.xlsx,0,0,0,Operation,Example,( 5 - 2 ) × 2 = 3,left,R,None,left,1,2.4612312000244856,None,,,,,,,,0,1,1,1,0,0,0,0,,,,,,,,,,,,,,,,,59.768211799673736,,,,,,57.7316176998429,57.74626289959997,59.732132599689066,59.75923869991675,60.0324095999822,60.0324095999822,62.50306089967489,left,1,2.4612312000244856,None,62.51335379993543,62.524467499926686,63.51902619982138,,,,,,,,,,,,,,,,,,,,,,,,,,,,,,,,,,,,,,,,3245241,001,2025-05-08_12h58.36.921,OperationSpanTask,2024.2.4,60.26605058232266,2025-05-08 12h58.48.542300 -0700,
Block2.xlsx,1,1,0,Operation,Example,( 4 + 1 ) × 1 = 5,right,V,"['r', 'v']",right,1,1.9313412001356483,None,,,,,,,,0,1,1,1,0,1,1,1,,,,,,,,,,,,,,,,,63.53613459970802,,,,,,,,,63.52319489978254,63.80257479986176,63.80257479986176,65.73963809991255,right,1,1.9313412001356483,None,65.74658619984984,65.7579831997864,66.75598879996687,,,,,,,,,,,,,,,,,,,,,,,,,,,,,,,,,,,,,,,,3245241,001,2025-05-08_12h58.36.921,OperationSpanTask,2024.2.4,60.26605058232266,2025-05-08 12h58.48.542300 -0700,
Block2.xlsx,1,1,0,,,,,,,,,,,"['r', 'v']",1,"[0.9257744001224637, 1.3475752002559602]","[0.08802599972113967, 0.09993689972907305]",space,1.6725955000147223,None,0,1,1,1,,,,,,,,,,,,,,,,,,,,,,,,,,,,,,,,,,,,,,,,,66.75814539985731,66.7720488999039,66.7720488999039,67.23980519967154,68.92586539965123,"['r', 'v']",1,"[0.9257744001224637, 1.3475752002559602]","[0.08802599972113967, 0.09993689972907305]",space,1.6725955000147223,None,,,,,,,,,,,,,,,,,,,,,,,,,,,,3245241,001,2025-05-08_12h58.36.921,OperationSpanTask,2024.2.4,60.26605058232266,2025-05-08 12h58.48.542300 -0700,
Block1.xlsx,0,0,0,Operation,2,( 4 - 1 ) × 1 = 6,left,S,None,left,1,2.0335337999276817,None,,,,,,,,,,,,,,,,0,0,0,0,0,0,0,0,,,,,,,,,71.4533629999496,,,,,,,,,71.44359829975292,71.72709769988433,71.72709769988433,73.7640761998482,,,,,73.77138419961557,73.78230279963464,74.78063399996608,,,,,,,,,,,,,68.93470849981532,68.94699969980866,71.42713429965079,left,1,2.0335337999276817,None,,,,,,,,,,,,,,,,,,,,,3245241,001,2025-05-08_12h58.36.921,OperationSpanTask,2024.2.4,60.26605058232266,2025-05-08 12h58.48.542300 -0700,
Block1.xlsx,1,1,0,Operation,2,( 3 + 1 ) × 3 = 12,right,B,"['s', 'b']",right,1,1.9913502000272274,None,,,,,,,,,,,,,,,,0,0,0,0,0,1,1,1,,,,,,,,,74.79735099989921,,,,,,,,,74.78420029999688,75.06389869982377,75.06389869982377,77.06741849984974,,,,,77.07289849966764,77.08534829970449,78.08355350000784,,,,,,,,,,,,,,,,right,1,1.9913502000272274,None,,,,,,,,,,,,,,,,,,,,,3245241,001,2025-05-08_12h58.36.921,OperationSpanTask,2024.2.4,60.26605058232266,2025-05-08 12h58.48.542300 -0700,
Block1.xlsx,0,0,0,,,,,,,,,,,"['s', 'b']",1,"[0.860338400118053, 1.2481478000991046]","[0.07878589956089854, 0.07005909970030189]",space,1.5249823997728527,None,,,,,,,,,0,0,0,0,,,,,,,,,,,,,,,,,,,,,,,,,,,,,,,,,78.08497249986976,78.1002309997566,78.1002309997566,78.56734409974888,80.10395989986137,,,,,,,,,,,,,,,"['s', 'b']",1,"[0.860338400118053, 1.2481478000991046]","[0.07878589956089854, 0.07005909970030189]",space,1.5249823997728527,None,,,,,,,,,,,,,,3245241,001,2025-05-08_12h58.36.921,OperationSpanTask,2024.2.4,60.26605058232266,2025-05-08 12h58.48.542300 -0700,
Block2.xlsx,0,0,0,Operation,2,( 4 - 2 ) × 2 = 6,left,T,None,left,1,2.2411030996590853,None,,,,,,,,,,,,,,,,0,1,1,1,0,0,0,0,,,,,,,,,82.63120419997722,,,,,,,,,82.62175929965451,82.90541019989178,82.90541019989178,85.15869459975511,,,,,85.1610130998306,85.17477349983528,86.15877430001274,,,,,,,,,,,,,80.1042406000197,80.11895049968734,82.60474729957059,left,1,2.2411030996590853,None,,,,,,,,86.17536029964685,,,,,,,,,,,,,3245241,001,2025-05-08_12h58.36.921,OperationSpanTask,2024.2.4,60.26605058232266,2025-05-08 12h58.48.542300 -0700,
Block2.xlsx,1,1,0,Operation,2,( 4 - 1 ) × 4 = 12,right,N,"['t', 'n']",right,1,1.949820099864155,None,,,,,,,,,,,,,,,,0,1,1,1,0,1,1,1,,,,,,,,,86.17536029964685,,,,,,,,,86.16227099997923,86.45880339993164,86.45880339993164,88.41179199982435,,,,,88.41888669971377,88.4301642999053,89.4285080996342,,,,,,,,,,,,,,,,right,1,1.949820099864155,None,,,,,,,,,,,,,,,,,,,,,3245241,001,2025-05-08_12h58.36.921,OperationSpanTask,2024.2.4,60.26605058232266,2025-05-08 12h58.48.542300 -0700,
Block2.xlsx,1,1,0,,,,,,,,,,,"['t', 'n']",1,"[0.8235364002175629, 1.078651400282979]","[0.07321569975465536, 0.08720199996605515]",space,1.3396858000196517,None,,,,,,,,,0,1,1,1,,,,,,,,,,,,,,,,,,,,,,,,,,,,,,,,,89.43003839999437,89.44491790002212,89.44491790002212,89.91213830001652,91.26657269988209,,,,,,,,,,,,,,,"['t', 'n']",1,"[0.8235364002175629, 1.078651400282979]","[0.07321569975465536, 0.08720199996605515]",space,1.3396858000196517,None,,,,,,,,,,,,,,3245241,001,2025-05-08_12h58.36.921,OperationSpanTask,2024.2.4,60.26605058232266,2025-05-08 12h58.48.542300 -0700,
Block3.xlsx,0,0,0,Operation,2,( 3 + 6 ) × 4 = 36,right,P,None,right,1,5.932631199713796,None,,,,,,,,,,,,,,,,0,2,2,2,0,0,0,0,,,,,,,,,93.79710539989173,,,,,,,,,93.78730249963701,94.06603699969128,94.06603699969128,100.00699479971081,,,,,100.01184709975496,100.0359560996294,101.02409109985456,,,,,,,,,,,,,91.26687899976969,91.28324859961867,93.76652699988335,right,1,5.932631199713796,None,,,,,,,,,93.79710539989173,,,,,,,,,,,,3245241,001,2025-05-08_12h58.36.921,OperationSpanTask,2024.2.4,60.26605058232266,2025-05-08 12h58.48.542300 -0700,
Block3.xlsx,1,1,0,Operation,2,( 5 - 1 ) × 1 = 6,left,R,"['p', 'r']",left,1,1.6313473000191152,None,,,,,,,,,,,,,,,,0,2,2,2,0,1,1,1,,,,,,,,,101.0407857997343,,,,,,,,,101.02775909984484,101.30730549991131,101.30730549991131,102.9427584996447,,,,,102.94504059990868,102.95919129997492,103.94292069971561,,,,,,,,,,,,,,,,left,1,1.6313473000191152,None,,,,,,,,,,,,,,,,,,,,,3245241,001,2025-05-08_12h58.36.921,OperationSpanTask,2024.2.4,60.26605058232266,2025-05-08 12h58.48.542300 -0700,
Block3.xlsx,2,2,0,,,,,,,,,,,"['p', 'r']",1,"[0.9136633998714387, 1.0683281999081373]","[0.09350680001080036, 0.06792100006714463]",space,1.3304701000452042,None,,,,,,,,,0,2,2,2,,,,,,,,,,,,,,,,,,,,,,,,,,,,,,,,,103.94445389974862,103.95929579995573,103.95929579995573,104.4434435996227,105.78007229976356,,,,,,,,,,,,,,,"['p', 'r']",1,"[0.9136633998714387, 1.0683281999081373]","[0.09350680001080036, 0.06792100006714463]",space,1.3304701000452042,None,,,,,,,,,,,,,,3245241,001,2025-05-08_12h58.36.921,OperationSpanTask,2024.2.4,60.26605058232266,2025-05-08 12h58.48.542300 -0700,
Block1.xlsx,0,0,0,Operation,3,( 4 + 2 ) × 2 = 8,left,C,None,left,1,2.67106580035761,None,,,,,,,,,,,,,,,,,,,,,,,,0,0,0,0,0,0,0,0,108.3105976996012,,,,,,,,,108.3009352996014,108.58085989998654,108.58085989998654,111.26949789980426,,,,,111.28209130000323,111.29435350000858,112.28521499969065,,,,,,,,,,,,,105.787799899932,105.798922999762,108.28098389972001,,,,,,,,,,,,,,left,1,2.67106580035761,None,,,,,,,,3245241,001,2025-05-08_12h58.36.921,OperationSpanTask,2024.2.4,60.26605058232266,2025-05-08 12h58.48.542300 -0700,
Block1.xlsx,1,1,0,Operation,3,( 3 - 1 ) × 3 = 5,left,L,None,left,1,2.32859760010615,None,,,,,,,,,,,,,,,,,,,,,,,,0,0,0,0,0,1,1,1,112.30635219998658,,,,,,,,,112.29514779988676,112.58577759983018,112.58577759983018,114.92185719963163,,,,,114.92689539957792,114.94063239963725,115.93816949985921,,,,,,,,,,,,,,,,,,,,,,,,,,,,,left,1,2.32859760010615,None,,,,,,,,3245241,001,2025-05-08_12h58.36.921,OperationSpanTask,2024.2.4,60.26605058232266,2025-05-08 12h58.48.542300 -0700,
Block1.xlsx,2,2,0,Operation,3,( 5 - 1 ) × 5 = 20,right,G,"['c', 'l', 'g']",right,1,3.838782100006938,None,,,,,,,,,,,,,,,,,,,,,,,,0,0,0,0,0,2,2,2,115.95668599987403,,,,,,,,,115.94380189990625,116.2217640997842,116.2217640997842,120.07689559971914,,,,,120.08377739973366,120.09503169963136,121.09355889959261,,,,,,,,,,,,,,,,,,,,,,,,,,,,,right,1,3.838782100006938,None,,,,,,,,3245241,001,2025-05-08_12h58.36.921,OperationSpanTask,2024.2.4,60.26605058232266,2025-05-08 12h58.48.542300 -0700,
Block1.xlsx,0,0,0,,,,,,,,,,,"['p', 'r', 'g']",0,"[5.820976099930704, 5.9371985998004675, 6.144979599863291]","[0.09401610027998686, 0.07589960005134344, 0.052961400244385004]",space,6.938643000088632,None,,,,,,,,,,,,,,,,,0,0,0,0,,,,,,,,,,,,,,,,,,,,,,,,,121.09505169978365,121.10994099965319,121.10994099965319,121.57714509963989,128.51865119999275,,,,,,,,,,,,,,,,,,,,,,,,,,,,"['p', 'r', 'g']",0,"[5.820976099930704, 5.9371985998004675, 6.144979599863291]","[0.09401610027998686, 0.07589960005134344, 0.052961400244385004]",space,6.938643000088632,None,3245241,001,2025-05-08_12h58.36.921,OperationSpanTask,2024.2.4,60.26605058232266,2025-05-08 12h58.48.542300 -0700,
Block2.xlsx,0,0,0,Operation,3,( 4 - 2 ) × 3 = 9,left,J,None,left,1,5.103162699844688,None,,,,,,,,,,,,,,,,,,,,,,,,0,1,1,1,0,0,0,0,131.04925979999825,,,,,,,,,131.03969160001725,131.3201434998773,131.3201434998773,136.42627839976922,,,,,136.4318547998555,136.44443719973788,137.44320739991963,,,,,,,,,,,,,128.51893469970673,128.53377529978752,131.0198017996736,,,,,,,,,,,,,,left,1,5.103162699844688,None,,,,,,,,3245241,001,2025-05-08_12h58.36.921,OperationSpanTask,2024.2.4,60.26605058232266,2025-05-08 12h58.48.542300 -0700,
Block2.xlsx,1,1,0,Operation,3,( 3 + 8 ) × 5 = 53,left,M,None,left,1,3.0527729000896215,None,,,,,,,,,,,,,,,,,,,,,,,,0,1,1,1,0,1,1,1,137.4607360996306,,,,,,,,,137.44793339958414,137.72638499969617,137.72638499969617,140.78116089990363,,,,,140.78898589964956,140.7994471997954,141.79757039994,,,,,,,,,,,,,,,,,,,,,,,,,,,,,left,1,3.0527729000896215,None,,,,,,,,3245241,001,2025-05-08_12h58.36.921,OperationSpanTask,2024.2.4,60.26605058232266,2025-05-08 12h58.48.542300 -0700,
Block2.xlsx,2,2,0,Operation,3,( 4 + 7 ) × 2 = 22,right,B,"['j', 'm', 'b']",right,1,5.324869900010526,None,,,,,,,,,,,,,,,,,,,,,,,,0,1,1,1,0,2,2,2,141.81652709981427,,,,,,,,,141.80356469983235,142.0808225995861,142.0808225995861,147.42079689959064,,,,,147.42322639981285,147.43705989979208,148.4209431000054,,,,,,,,,,,,,,,,,,,,,,,,,,,148.43684089975432,,right,1,5.324869900010526,None,,,,,,,,3245241,001,2025-05-08_12h58.36.921,OperationSpanTask,2024.2.4,60.26605058232266,2025-05-08 12h58.48.542300 -0700,
Block2.xlsx,1,1,0,,,,,,,,,,,"['r', 'g', 'b']",0,"[4.172652800101787, 4.400710300076753, 4.600750199984759]","[0.0852082995697856, 0.08717479975894094, 0.08496070001274347]",space,5.471311599947512,None,,,,,,,,,,,,,,,,,0,1,1,1,,,,,,,,,,,,,,,,,,,,,,,,,148.42259049974382,148.43684089975432,148.43684089975432,148.92096929997206,154.39458550000563,,,,,,,,,,,,,,,,,,,,,,,,,,,,"['r', 'g', 'b']",0,"[4.172652800101787, 4.400710300076753, 4.600750199984759]","[0.0852082995697856, 0.08717479975894094, 0.08496070001274347]",space,5.471311599947512,None,3245241,001,2025-05-08_12h58.36.921,OperationSpanTask,2024.2.4,60.26605058232266,2025-05-08 12h58.48.542300 -0700,
Block3.xlsx,0,0,0,Operation,3,( 3 + 6 ) × 5 = 43,right,Z,None,left,0,5.188189500011504,None,,,,,,,,,,,,,,,,,,,,,,,,0,2,2,2,0,0,0,0,156.92254439974204,,,,,,,,,156.91321779973805,157.19582069991156,157.19582069991156,162.38598499959335,,,,,162.39174559991807,162.40419799974188,163.40237659960985,,,,,,,,,,,,,154.39484580000862,154.4095991998911,156.8955460996367,,,,,,,,,,,,,,left,0,5.188189500011504,None,,,,,,,,3245241,001,2025-05-08_12h58.36.921,OperationSpanTask,2024.2.4,60.26605058232266,2025-05-08 12h58.48.542300 -0700,
Block3.xlsx,1,1,0,Operation,3,( 6 - 1 ) × 3 = 19,right,F,None,left,0,11.49560989998281,None,,,,,,,,,,,,,,,,,,,,,,,,0,2,2,2,0,1,1,1,163.41936659999192,,,,,,,,,163.4057963998057,163.68593709962443,163.68593709962443,175.19974809978157,,,,,175.21270609972998,175.2237282996066,176.2164419000037,,,,,,,,,,,,,,,,,,,,,,,,,,,,,left,0,11.49560989998281,None,,,,,,,,3245241,001,2025-05-08_12h58.36.921,OperationSpanTask,2024.2.4,60.26605058232266,2025-05-08 12h58.48.542300 -0700,
Block3.xlsx,2,2,0,Operation,3,( 4 + 2 ) × 4 = 23,right,T,"['z', 'f', 't']",left,0,10.976320500019938,None,,,,,,,,,,,,,,,,,,,,,,,,0,2,2,2,0,2,2,2,176.23419319977984,,,,,,,,,176.22120449971408,176.51510129962116,176.51510129962116,187.49389759963378,,,,,187.49607459967956,187.50987919978797,188.49409329984337,,,,,,,,,,,,,,,,,,,,,,,,,,,188.5102875996381,,left,0,10.976320500019938,None,,,,,,,,3245241,001,2025-05-08_12h58.36.921,OperationSpanTask,2024.2.4,60.26605058232266,2025-05-08 12h58.48.542300 -0700,
,,,,,,,,,,,,,,,,,,,,,,,,,,,,,,,,,,,,,,,,,,,,,,,,,,,,,,,,,,,,,,,,,188.49585710000247,188.5102875996381,188.5102875996381,188.99420779990032,,,,,,,,,,,,,,,,,,,,,,,,,,,,,,,,,,,,,,,,,,,
