thisN,thisTrialN,thisRepN,letter,correct,sound_question_textbox.text,sound_question_resp.keys,sound_question_resp.rt,sound_question_resp.duration,key_resp.keys,key_resp.rt,key_resp.duration,nback_resp.keys,nback_resp.corr,nback_resp.rt,nback_resp.duration,Type,Span,Stimulus,Response,Letter,corrResp,key_resp_2.keys,key_resp_2.corr,key_resp_2.rt,key_resp_2.duration,key_resp_3.keys,key_resp_3.corr,key_resp_3.rt,key_resp_3.duration,key_resp_4.keys,key_resp_4.rt,key_resp_4.duration,sound_loop.thisRepN,sound_loop.thisTrialN,sound_loop.thisN,sound_loop.thisIndex,trials_3.thisRepN,trials_3.thisTrialN,trials_3.thisN,trials_3.thisIndex,trialloop.thisRepN,trialloop.thisTrialN,trialloop.thisN,trialloop.thisIndex,trialloop2.thisRepN,trialloop2.thisTrialN,trialloop2.thisN,trialloop2.thisIndex,trialloop3.thisRepN,trialloop3.thisTrialN,trialloop3.thisN,trialloop3.thisIndex,trialloop4.thisRepN,trialloop4.thisTrialN,trialloop4.thisN,trialloop4.thisIndex,trialloop5.thisRepN,trialloop5.thisTrialN,trialloop5.thisN,trialloop5.thisIndex,trialloop6.thisRepN,trialloop6.thisTrialN,trialloop6.thisN,trialloop6.thisIndex,trialloop7.thisRepN,trialloop7.thisTrialN,trialloop7.thisN,trialloop7.thisIndex,thisRow.t,notes,random_2.started,random_2.stopped,start_sound.started,start_sound.stopped,sound_question.started,sound_question_text.started,sound_question_textbox.started,sound_question_resp.started,sound_question.stopped,sound_loop.sound_question_textbox.text,sound_loop.sound_question_resp.keys,sound_loop.sound_question_resp.rt,sound_loop.sound_question_resp.duration,nback_instruction.started,nback_inst.started,key_resp.started,nback_instruction.stopped,sound_loop.key_resp.keys,sound_loop.key_resp.rt,sound_loop.key_resp.duration,nback.started,nback_stim.started,nback_resp.started,nback_resp.stopped,nback.stopped,trials_3.nback_resp.keys,trials_3.nback_resp.corr,nback_stim.stopped,trials_3.nback_resp.rt,trials_3.nback_resp.duration,instructions.started,inst_text.started,key_resp_5.started,instructions.stopped,practice_warning.started,text_6.started,practice_warning.stopped,stimulus.started,text.started,key_resp_2.started,stimulus.stopped,trialloop.key_resp_2.keys,trialloop.key_resp_2.corr,trialloop.key_resp_2.rt,trialloop.key_resp_2.duration,ospan_stim.started,text_2.started,ospan_stim.stopped,Recall.started,text_3.started,key_resp_3.started,key_resp_4.started,Recall.stopped,sound_loop.key_resp_3.keys,sound_loop.key_resp_3.corr,sound_loop.key_resp_3.rt,sound_loop.key_resp_3.duration,sound_loop.key_resp_4.keys,sound_loop.key_resp_4.rt,sound_loop.key_resp_4.duration,trial_warning.started,text_5.started,trial_warning.stopped,trialloop2.key_resp_2.keys,trialloop2.key_resp_2.corr,trialloop2.key_resp_2.rt,trialloop2.key_resp_2.duration,trialloop3.key_resp_2.keys,trialloop3.key_resp_2.corr,trialloop3.key_resp_2.rt,trialloop3.key_resp_2.duration,text_2.stopped,trialloop4.key_resp_2.keys,trialloop4.key_resp_2.corr,trialloop4.key_resp_2.rt,trialloop4.key_resp_2.duration,trialloop5.key_resp_2.keys,trialloop5.key_resp_2.corr,trialloop5.key_resp_2.rt,trialloop5.key_resp_2.duration,trialloop6.key_resp_2.keys,trialloop6.key_resp_2.corr,trialloop6.key_resp_2.rt,trialloop6.key_resp_2.duration,trialloop7.key_resp_2.keys,trialloop7.key_resp_2.corr,trialloop7.key_resp_2.rt,trialloop7.key_resp_2.duration,participant,session,date,expName,psychopyVersion,frameRate,expStart,
0,0,0,S,None,white noise ,return,8.43858822400216,None,space,1.8501687570023932,None,None,1,,,,,,,,,,,,,,,,,,,,0,0,0,0,0,0,0,0,,,,,,,,,,,,,,,,,,,,,,,,,,,,,13.570273591001751,,0.22233043199958047,0.22241438499622745,2.606776111002546,2.6069075240011443,2.6681901959964307,2.728528223997273,2.728528223997273,2.728528223997273,11.168901625002036,white noise ,return,8.43858822400216,None,11.169000743000652,11.178913350995572,11.683009572996525,13.538841492998472,space,1.8501687570023932,None,13.561562263996166,15.046870295002009,15.046870295002009,15.553365193998616,16.051963120000437,None,1,,,,,,,,,,,,,,,,,,,,,,,,,,,,,,,,,,,,,,,,,,,,,,,,,,,,,,,,,,,,,,364,001,2025-05-15_15h30.21.482,Psych121Project_nback_ospan,2024.2.4,60,2025-05-15 15h30.31.191337 -0700,
1,1,0,A,None,white noise ,return,8.43858822400216,None,space,1.8501687570023932,None,None,1,,,,,,,,,,,,,,,,,,,,0,0,0,0,0,1,1,1,,,,,,,,,,,,,,,,,,,,,,,,,,,,,16.060760373002267,,,,,,,,,,,,,,,,,,,,,,16.055162431999634,17.535418940002273,17.535418940002273,18.04270844200073,18.53514020700095,None,1,18.552187832996424,,,,,,,,,,,,,,,,,,,,,,,,,,,,,,,,,,,,,,,,,,,,,,,,,,,,,,,,,,,,,364,001,2025-05-15_15h30.21.482,Psych121Project_nback_ospan,2024.2.4,60,2025-05-15 15h30.31.191337 -0700,
2,2,0,S,None,white noise ,return,8.43858822400216,None,space,1.8501687570023932,None,None,1,,,,,,,,,,,,,,,,,,,,0,0,0,0,0,2,2,2,,,,,,,,,,,,,,,,,,,,,,,,,,,,,18.552187832996424,,,,,,,,,,,,,,,,,,,,,,18.53704253199976,20.041992908001703,20.041992908001703,20.536645913998655,21.036733210996317,None,1,21.04451983099716,,,,,,,,,,,,,,,,,,,,,,,,,,,,,,,,,,,,,,,,,,,,,,,,,,,,,,,,,,,,,364,001,2025-05-15_15h30.21.482,Psych121Project_nback_ospan,2024.2.4,60,2025-05-15 15h30.31.191337 -0700,
3,3,0,P,None,white noise ,return,8.43858822400216,None,space,1.8501687570023932,None,None,1,,,,,,,,,,,,,,,,,,,,0,0,0,0,0,3,3,3,,,,,,,,,,,,,,,,,,,,,,,,,,,,,21.04451983099716,,,,,,,,,,,,,,,,,,,,,,21.040460595002514,22.540823071001796,22.540823071001796,23.035599331000412,23.535131029995682,None,1,23.542178336996585,,,,,,,,,,,,,,,,,,,,,,,,,,,,,,,,,,,,,,,,,,,,,,,,,,,,,,,,,,,,,364,001,2025-05-15_15h30.21.482,Psych121Project_nback_ospan,2024.2.4,60,2025-05-15 15h30.31.191337 -0700,
4,4,0,A,space,white noise ,return,8.43858822400216,None,space,1.8501687570023932,None,None,0,,,,,,,,,,,,,,,,,,,,0,0,0,0,0,4,4,4,,,,,,,,,,,,,,,,,,,,,,,,,,,,,23.542178336996585,,,,,,,,,,,,,,,,,,,,,,23.53716041699954,25.04499827499967,25.04499827499967,25.55473026099935,26.03607658099645,None,0,26.04626017100236,,,,,,,,,,,,,,,,,,,,,,,,,,,,,,,,,,,,,,,,,,,,,,,,,,,,,,,,,,,,,364,001,2025-05-15_15h30.21.482,Psych121Project_nback_ospan,2024.2.4,60,2025-05-15 15h30.31.191337 -0700,
5,5,0,I,None,white noise ,return,8.43858822400216,None,space,1.8501687570023932,None,None,1,,,,,,,,,,,,,,,,,,,,0,0,0,0,0,5,5,5,,,,,,,,,,,,,,,,,,,,,,,,,,,,,26.04626017100236,,,,,,,,,,,,,,,,,,,,,,26.03962011299882,27.540650058996107,27.540650058996107,28.057686440995894,28.544584449002286,None,1,,,,,,,,,,,,,,,,,,,,,,,,,,,,,,,,,,,,,,,,,,,,,,,,,,,,,,,,,,,,,,364,001,2025-05-15_15h30.21.482,Psych121Project_nback_ospan,2024.2.4,60,2025-05-15 15h30.31.191337 -0700,
6,6,0,B,None,white noise ,return,8.43858822400216,None,space,1.8501687570023932,None,None,1,,,,,,,,,,,,,,,,,,,,0,0,0,0,0,6,6,6,,,,,,,,,,,,,,,,,,,,,,,,,,,,,28.554379064000386,,,,,,,,,,,,,,,,,,,,,,28.54845779199968,30.0328598269989,30.0328598269989,30.531384937996336,31.0211339929956,None,1,31.042924761000904,,,,,,,,,,,,,,,,,,,,,,,,,,,,,,,,,,,,,,,,,,,,,,,,,,,,,,,,,,,,,364,001,2025-05-15_15h30.21.482,Psych121Project_nback_ospan,2024.2.4,60,2025-05-15 15h30.31.191337 -0700,
7,7,0,L,None,white noise ,return,8.43858822400216,None,space,1.8501687570023932,None,None,1,,,,,,,,,,,,,,,,,,,,0,0,0,0,0,7,7,7,,,,,,,,,,,,,,,,,,,,,,,,,,,,,31.042924761000904,,,,,,,,,,,,,,,,,,,,,,31.026825670996914,32.553607825000654,32.553607825000654,33.06966497699614,33.54351180000231,None,1,,,,,,,,,,,,,,,,,,,,,,,,,,,,,,,,,,,,,,,,,,,,,,,,,,,,,,,,,,,,,,364,001,2025-05-15_15h30.21.482,Psych121Project_nback_ospan,2024.2.4,60,2025-05-15 15h30.31.191337 -0700,
8,8,0,I,space,white noise ,return,8.43858822400216,None,space,1.8501687570023932,None,space,1,0.43750335500226356,None,,,,,,,,,,,,,,,,,,0,0,0,0,0,8,8,8,,,,,,,,,,,,,,,,,,,,,,,,,,,,,33.56255045099533,,,,,,,,,,,,,,,,,,,,,,33.54531287700229,35.044229639999685,35.044229639999685,,35.4990077179973,space,1,,0.43750335500226356,None,,,,,,,,,,,,,,,,,,,,,,,,,,,,,,,,,,,,,,,,,,,,,,,,,,,,,,,,,,,364,001,2025-05-15_15h30.21.482,Psych121Project_nback_ospan,2024.2.4,60,2025-05-15 15h30.31.191337 -0700,
9,9,0,P,None,white noise ,return,8.43858822400216,None,space,1.8501687570023932,None,None,1,,,,,,,,,,,,,,,,,,,,0,0,0,0,0,9,9,9,,,,,,,,,,,,,,,,,,,,,,,,,,,,,35.51287025499914,,,,,,,,,,,,,,,,,,,,,,35.50117544699606,36.99429447000148,36.99429447000148,37.49105040200084,37.99373456399917,None,1,38.01110877999599,,,,,,,,,,,,,,,,,,,,,,,,,,,,,,,,,,,,,,,,,,,,,,,,,,,,,,,,,,,,,364,001,2025-05-15_15h30.21.482,Psych121Project_nback_ospan,2024.2.4,60,2025-05-15 15h30.31.191337 -0700,
10,10,0,S,None,white noise ,return,8.43858822400216,None,space,1.8501687570023932,None,None,1,,,,,,,,,,,,,,,,,,,,0,0,0,0,0,10,10,10,,,,,,,,,,,,,,,,,,,,,,,,,,,,,38.01110877999599,,,,,,,,,,,,,,,,,,,,,,37.99565361900022,39.526199362000625,39.526199362000625,40.04171974399651,40.50772841199796,None,1,,,,,,,,,,,,,,,,,,,,,,,,,,,,,,,,,,,,,,,,,,,,,,,,,,,,,,,,,,,,,,364,001,2025-05-15_15h30.21.482,Psych121Project_nback_ospan,2024.2.4,60,2025-05-15 15h30.31.191337 -0700,
11,11,0,I,space,white noise ,return,8.43858822400216,None,space,1.8501687570023932,None,None,0,,,,,,,,,,,,,,,,,,,,0,0,0,0,0,11,11,11,,,,,,,,,,,,,,,,,,,,,,,,,,,,,40.51864945900161,,,,,,,,,,,,,,,,,,,,,,40.51070005299698,41.99740325699531,41.99740325699531,42.498466944998654,42.990549142996315,None,0,43.01015704200108,,,,,,,,,,,,,,,,,,,,,,,,,,,,,,,,,,,,,,,,,,,,,,,,,,,,,,,,,,,,,364,001,2025-05-15_15h30.21.482,Psych121Project_nback_ospan,2024.2.4,60,2025-05-15 15h30.31.191337 -0700,
12,12,0,P,space,white noise ,return,8.43858822400216,None,space,1.8501687570023932,None,None,0,,,,,,,,,,,,,,,,,,,,0,0,0,0,0,12,12,12,,,,,,,,,,,,,,,,,,,,,,,,,,,,,43.01015704200108,,,,,,,,,,,,,,,,,,,,,,42.99360058199818,44.506801948999055,44.506801948999055,45.020637062996684,45.52013196799817,None,0,,,,,,,,,,,,,,,,,,,,,,,,,,,,,,,,,,,,,,,,,,,,,,,,,,,,,,,,,,,,,,364,001,2025-05-15_15h30.21.482,Psych121Project_nback_ospan,2024.2.4,60,2025-05-15 15h30.31.191337 -0700,
13,13,0,E,None,white noise ,return,8.43858822400216,None,space,1.8501687570023932,None,None,1,,,,,,,,,,,,,,,,,,,,0,0,0,0,0,13,13,13,,,,,,,,,,,,,,,,,,,,,,,,,,,,,45.53540027499548,,,,,,,,,,,,,,,,,,,,,,45.52938621400244,47.014880162001646,47.014880162001646,47.531808161998924,48.014123984001344,None,1,,,,,,,,,,,,,,,,,,,,,,,,,,,,,,,,,,,,,,,,,,,,,,,,,,,,,,,,,,,,,,364,001,2025-05-15_15h30.21.482,Psych121Project_nback_ospan,2024.2.4,60,2025-05-15 15h30.31.191337 -0700,
14,14,0,A,None,white noise ,return,8.43858822400216,None,space,1.8501687570023932,None,None,1,,,,,,,,,,,,,,,,,,,,0,0,0,0,0,14,14,14,,,,,,,,,,,,,,,,,,,,,,,,,,,,,48.0326893340025,,,,,,,,,,,,,,,,,,,,,,48.01584649000142,49.51178843299567,49.51178843299567,50.03227080700162,50.51374905800185,None,1,,,,,,,,,,,,,,,,,,,,,,,,,,,,,,,,,,,,,,,,,,,,,,,,,,,,,,,,,,,,,,364,001,2025-05-15_15h30.21.482,Psych121Project_nback_ospan,2024.2.4,60,2025-05-15 15h30.31.191337 -0700,
15,15,0,L,None,white noise ,return,8.43858822400216,None,space,1.8501687570023932,None,None,1,,,,,,,,,,,,,,,,,,,,0,0,0,0,0,15,15,15,,,,,,,,,,,,,,,,,,,,,,,,,,,,,50.532085895996715,,,,,,,,,,,,,,,,,,,,,,50.51556413000071,52.00671002099989,52.00671002099989,52.50294903000031,53.01250228299614,None,1,,,,,,,,,,,,,,,,,,,,,,,,,,,,,,,,,,,,,,,,,,,,,,,,,,,,,,,,,,,,,,364,001,2025-05-15_15h30.21.482,Psych121Project_nback_ospan,2024.2.4,60,2025-05-15 15h30.31.191337 -0700,
16,16,0,P,None,white noise ,return,8.43858822400216,None,space,1.8501687570023932,None,None,1,,,,,,,,,,,,,,,,,,,,0,0,0,0,0,16,16,16,,,,,,,,,,,,,,,,,,,,,,,,,,,,,53.031701064996014,,,,,,,,,,,,,,,,,,,,,,53.01446899300208,54.5071637009969,54.5071637009969,55.02253699799621,55.497264270001324,None,1,55.5066051199974,,,,,,,,,,,,,,,,,,,,,,,,,,,,,,,,,,,,,,,,,,,,,,,,,,,,,,,,,,,,,364,001,2025-05-15_15h30.21.482,Psych121Project_nback_ospan,2024.2.4,60,2025-05-15 15h30.31.191337 -0700,
17,17,0,D,None,white noise ,return,8.43858822400216,None,space,1.8501687570023932,None,None,1,,,,,,,,,,,,,,,,,,,,0,0,0,0,0,17,17,17,,,,,,,,,,,,,,,,,,,,,,,,,,,,,55.5066051199974,,,,,,,,,,,,,,,,,,,,,,55.50108896999882,57.015880849001405,57.015880849001405,57.5281051330021,58.01111350800056,None,1,,,,,,,,,,,,,,,,,,,,,,,,,,,,,,,,,,,,,,,,,,,,,,,,,,,,,,,,,,,,,,364,001,2025-05-15_15h30.21.482,Psych121Project_nback_ospan,2024.2.4,60,2025-05-15 15h30.31.191337 -0700,
18,18,0,A,None,white noise ,return,8.43858822400216,None,space,1.8501687570023932,None,None,1,,,,,,,,,,,,,,,,,,,,0,0,0,0,0,18,18,18,,,,,,,,,,,,,,,,,,,,,,,,,,,,,58.0297914210023,,,,,,,,,,,,,,,,,,,,,,58.013113328001054,59.51254220800183,59.51254220800183,60.02731568500167,60.50296971399803,None,1,,,,,,,,,,,,,,,,,,,,,,,,,,,,,,,,,,,,,,,,,,,,,,,,,,,,,,,,,,,,,,364,001,2025-05-15_15h30.21.482,Psych121Project_nback_ospan,2024.2.4,60,2025-05-15 15h30.31.191337 -0700,
19,19,0,P,space,white noise ,return,8.43858822400216,None,space,1.8501687570023932,None,None,0,,,,,,,,,,,,,,,,,,,,0,0,0,0,0,19,19,19,,,,,,,,,,,,,,,,,,,,,,,,,,,,,60.520609278995835,,,,,,,,,,,,,,,,,,,,,,60.505312433000654,62.01392922300147,62.01392922300147,62.51963598399743,63.01590959099849,None,0,,,,,,,,,,,,,,,,,,,,,,,,,,,,,,,,,,,,,,,,,,,,,,,,,,,,,,,,,,,,,,364,001,2025-05-15_15h30.21.482,Psych121Project_nback_ospan,2024.2.4,60,2025-05-15 15h30.31.191337 -0700,
20,20,0,A,None,white noise ,return,8.43858822400216,None,space,1.8501687570023932,None,None,1,,,,,,,,,,,,,,,,,,,,0,0,0,0,0,20,20,20,,,,,,,,,,,,,,,,,,,,,,,,,,,,,63.035208547000366,,,,,,,,,,,,,,,,,,,,,,63.01791268099623,64.51399444499839,64.51399444499839,65.0319920749971,65.50622119200125,None,1,,,,,,,,,,,,,,,,,,,,,,,,,,,,,,,,,,,,,,,,,,,,,,,,,,,,,,,,,,,,,,364,001,2025-05-15_15h30.21.482,Psych121Project_nback_ospan,2024.2.4,60,2025-05-15 15h30.31.191337 -0700,
21,21,0,P,None,white noise ,return,8.43858822400216,None,space,1.8501687570023932,None,None,1,,,,,,,,,,,,,,,,,,,,0,0,0,0,0,21,21,21,,,,,,,,,,,,,,,,,,,,,,,,,,,,,65.52499752400036,,,,,,,,,,,,,,,,,,,,,,65.50857193399861,67.02387362100126,67.02387362100126,67.53788895600155,68.01348474800034,None,1,,,,,,,,,,,,,,,,,,,,,,,,,,,,,,,,,,,,,,,,,,,,,,,,,,,,,,,,,,,,,,364,001,2025-05-15_15h30.21.482,Psych121Project_nback_ospan,2024.2.4,60,2025-05-15 15h30.31.191337 -0700,
22,22,0,B,None,white noise ,return,8.43858822400216,None,space,1.8501687570023932,None,None,1,,,,,,,,,,,,,,,,,,,,0,0,0,0,0,22,22,22,,,,,,,,,,,,,,,,,,,,,,,,,,,,,68.03244937300042,,,,,,,,,,,,,,,,,,,,,,68.01543460699759,69.50953994099837,69.50953994099837,70.0253332489956,70.50016974999744,None,1,,,,,,,,,,,,,,,,,,,,,,,,,,,,,,,,,,,,,,,,,,,,,,,,,,,,,,,,,,,,,,364,001,2025-05-15_15h30.21.482,Psych121Project_nback_ospan,2024.2.4,60,2025-05-15 15h30.31.191337 -0700,
23,23,0,R,None,white noise ,return,8.43858822400216,None,space,1.8501687570023932,None,None,1,,,,,,,,,,,,,,,,,,,,0,0,0,0,0,23,23,23,,,,,,,,,,,,,,,,,,,,,,,,,,,,,70.51154308299738,,,,,,,,,,,,,,,,,,,,,,70.50644091599679,72.01417687600042,72.01417687600042,72.53071022599761,73.00499698599742,None,1,,,,,,,,,,,,,,,,,,,,,,,,,,,,,,,,,,,,,,,,,,,,,,,,,,,,,,,,,,,,,,364,001,2025-05-15_15h30.21.482,Psych121Project_nback_ospan,2024.2.4,60,2025-05-15 15h30.31.191337 -0700,
24,24,0,P,space,white noise ,return,8.43858822400216,None,space,1.8501687570023932,None,None,0,,,,,,,,,,,,,,,,,,,,0,0,0,0,0,24,24,24,,,,,,,,,,,,,,,,,,,,,,,,,,,,,73.0239109979957,,,,,,,,,,,,,,,,,,,,,,73.00692323200201,74.52144928599591,74.52144928599591,75.01976458799618,75.50429079600144,None,0,,,,,,,,,,,,,,,,,,,,,,,,,,,,,,,,,,,,,,,,,,,,,,,,,,,,,,,,,,,,,,364,001,2025-05-15_15h30.21.482,Psych121Project_nback_ospan,2024.2.4,60,2025-05-15 15h30.31.191337 -0700,
25,25,0,W,None,white noise ,return,8.43858822400216,None,space,1.8501687570023932,None,None,1,,,,,,,,,,,,,,,,,,,,0,0,0,0,0,25,25,25,,,,,,,,,,,,,,,,,,,,,,,,,,,,,75.51817210199806,,,,,,,,,,,,,,,,,,,,,,75.51173042500159,77.01599530300155,77.01599530300155,77.53181734999816,78.00549388299987,None,1,,,,,,,,,,,,,,,,,,,,,,,,,,,,,,,,,,,,,,,,,,,,,,,,,,,,,,,,,,,,,,364,001,2025-05-15_15h30.21.482,Psych121Project_nback_ospan,2024.2.4,60,2025-05-15 15h30.31.191337 -0700,
26,26,0,R,space,white noise ,return,8.43858822400216,None,space,1.8501687570023932,None,None,0,,,,,,,,,,,,,,,,,,,,0,0,0,0,0,26,26,26,,,,,,,,,,,,,,,,,,,,,,,,,,,,,78.02332330799982,,,,,,,,,,,,,,,,,,,,,,78.00761321799655,79.5199471570013,79.5199471570013,80.03656055600004,80.51170012699731,None,0,,,,,,,,,,,,,,,,,,,,,,,,,,,,,,,,,,,,,,,,,,,,,,,,,,,,,,,,,,,,,,364,001,2025-05-15_15h30.21.482,Psych121Project_nback_ospan,2024.2.4,60,2025-05-15 15h30.31.191337 -0700,
27,27,0,L,None,white noise ,return,8.43858822400216,None,space,1.8501687570023932,None,None,1,,,,,,,,,,,,,,,,,,,,0,0,0,0,0,27,27,27,,,,,,,,,,,,,,,,,,,,,,,,,,,,,80.5296428110014,,,,,,,,,,,,,,,,,,,,,,80.51355018100003,82.00673247099621,82.00673247099621,82.52474641500157,82.99964473200089,None,1,,,,,,,,,,,,,,,,,,,,,,,,,,,,,,,,,,,,,,,,,,,,,,,,,,,,,,,,,,,,,,364,001,2025-05-15_15h30.21.482,Psych121Project_nback_ospan,2024.2.4,60,2025-05-15 15h30.31.191337 -0700,
28,28,0,P,None,white noise ,return,8.43858822400216,None,space,1.8501687570023932,None,None,1,,,,,,,,,,,,,,,,,,,,0,0,0,0,0,28,28,28,,,,,,,,,,,,,,,,,,,,,,,,,,,,,83.01830472100119,,,,,,,,,,,,,,,,,,,,,,83.00159261999943,84.52595762699639,84.52595762699639,85.02554246599902,85.50830318999942,None,1,,,,,,,,,,,,,,,,,,,,,,,,,,,,,,,,,,,,,,,,,,,,,,,,,,,,,,,,,,,,,,364,001,2025-05-15_15h30.21.482,Psych121Project_nback_ospan,2024.2.4,60,2025-05-15 15h30.31.191337 -0700,
0,0,0,,,white noise ,return,8.43858822400216,None,space,1.8501687570023932,None,,,,,Operation,None,( 3 - 9 ) × 1 = -6,right,V,None,right,1,1.7183844360042713,None,,,,,,,,0,0,0,0,,,,,0,0,0,0,,,,,,,,,,,,,,,,,,,,,,,,,108.94600151499617,,,,,,,,,,,,,,,,,,,,,,,,,,,,,,,,85.51476982099848,85.52278094299982,86.52263950699853,106.89091995299532,106.89099705899571,106.90413497699774,108.90146708999964,108.94084902400209,109.19275810199906,109.19275810199906,110.9200217739999,right,1,1.7183844360042713,None,110.92732393000188,110.93505563100189,111.92137438499776,,,,,,,,,,,,,,,,,,,,,,,,,,,,,,,,,,,,,,,,,364,001,2025-05-15_15h30.21.482,Psych121Project_nback_ospan,2024.2.4,60,2025-05-15 15h30.31.191337 -0700,
1,1,0,,,white noise ,return,8.43858822400216,None,space,1.8501687570023932,None,,,,,Operation,None,( 9 + 5 ) × 1 = 14,right,N,"['v', 'n']",right,1,0.9916862280006171,None,,,,,,,,0,0,0,0,,,,,0,1,1,1,,,,,,,,,,,,,,,,,,,,,,,,,111.94059220299823,,,,,,,,,,,,,,,,,,,,,,,,,,,,,,,,,,,,,,,111.93634821500018,112.22329048699612,112.22329048699612,113.22071734099882,right,1,0.9916862280006171,None,113.22748521799804,113.23514311100007,114.23728964699694,,,,,,,,,,,,,,,,,,,,,,,,,,,,,,,,,,,,,,,,,364,001,2025-05-15_15h30.21.482,Psych121Project_nback_ospan,2024.2.4,60,2025-05-15 15h30.31.191337 -0700,
0,0,0,,,white noise ,return,8.43858822400216,None,space,1.8501687570023932,None,,,,,Operation,None,( 1 - 9 ) × 2 = -18,left,E,None,right,0,0.7226484390048427,None,"['v', 's']",0,"[4.954217926002457, 5.09212764500262]","[0.2179173179974896, 0.2082476020004833]",space,5.532125208002981,None,0,0,0,0,,,,,,,,,0,0,0,0,,,,,,,,,,,,,,,,,,,,,122.82459781099897,,,,,,,,,,,,,,,,,,,,,,,,,,,,,,,,,,,,,,,122.82059611300065,123.0977812669953,123.0977812669953,123.8317441370018,,,,,123.83536252899648,123.84501399700093,124.83962292000069,114.2390454080014,114.24875978899945,114.24875978899945,114.73738468100055,120.27416757500032,"['v', 's']",0,"[4.954217926002457, 5.09212764500262]","[0.2179173179974896, 0.2082476020004833]",space,5.532125208002981,None,120.27446410899574,120.29158403300244,122.78660883299744,right,0,0.7226484390048427,None,,,,,,,,,,,,,,,,,,,,,,364,001,2025-05-15_15h30.21.482,Psych121Project_nback_ospan,2024.2.4,60,2025-05-15 15h30.31.191337 -0700,
1,1,0,,,white noise ,return,8.43858822400216,None,space,1.8501687570023932,None,,,,,Operation,None,( 9 + 1 ) × 1 = 12,left,C,None,right,0,0.8865379220005707,None,"['v', 's']",0,"[4.954217926002457, 5.09212764500262]","[0.2179173179974896, 0.2082476020004833]",space,5.532125208002981,None,0,0,0,0,,,,,,,,,0,1,1,1,,,,,,,,,,,,,,,,,,,,,124.85036758500064,,,,,,,,,,,,,,,,,,,,,,,,,,,,,,,,,,,,,,,124.84291619600117,125.15489059199899,125.15489059199899,126.0620152909978,,,,,126.06765089400142,126.0754211559979,127.07109691500227,,,,,,,,,,,,,,,,right,0,0.8865379220005707,None,,,,,,,,,,,,,,,,,,,,,,364,001,2025-05-15_15h30.21.482,Psych121Project_nback_ospan,2024.2.4,60,2025-05-15 15h30.31.191337 -0700,
2,2,0,,,white noise ,return,8.43858822400216,None,space,1.8501687570023932,None,,,,,Operation,None,( 4 - 7 ) × 1 = -4,left,F,None,right,0,0.6792279439978302,None,"['v', 's']",0,"[4.954217926002457, 5.09212764500262]","[0.2179173179974896, 0.2082476020004833]",space,5.532125208002981,None,0,0,0,0,,,,,,,,,0,2,2,2,,,,,,,,,,,,,,,,,,,,,127.08398081799533,,,,,,,,,,,,,,,,,,,,,,,,,,,,,,,,,,,,,,,127.07940009800222,127.36924796499807,127.36924796499807,128.06302159700135,,,,,128.06962639700214,128.07697865999944,129.07563092200144,,,,,,,,,,,,,,,,right,0,0.6792279439978302,None,,,,,,,,,,,,,,,,,,,,,,364,001,2025-05-15_15h30.21.482,Psych121Project_nback_ospan,2024.2.4,60,2025-05-15 15h30.31.191337 -0700,
3,3,0,,,white noise ,return,8.43858822400216,None,space,1.8501687570023932,None,,,,,Operation,None,( 2 + 7 ) × 3 = 27,right,L,None,right,1,0.68897143000504,None,"['v', 's']",0,"[4.954217926002457, 5.09212764500262]","[0.2179173179974896, 0.2082476020004833]",space,5.532125208002981,None,0,0,0,0,,,,,,,,,0,3,3,3,,,,,,,,,,,,,,,,,,,,,129.08722240399948,,,,,,,,,,,,,,,,,,,,,,,,,,,,,,,,,,,,,,,129.0784866699978,129.36011962300108,129.36011962300108,130.06121061700105,,,,,130.06442435200006,130.07304984799703,131.06298532200162,,,,,,,,,,,,,,,,right,1,0.68897143000504,None,,,,,,,,,,,,,,,,,,,,,,364,001,2025-05-15_15h30.21.482,Psych121Project_nback_ospan,2024.2.4,60,2025-05-15 15h30.31.191337 -0700,
4,4,0,,,white noise ,return,8.43858822400216,None,space,1.8501687570023932,None,,,,,Operation,None,( 8 - 7 ) × 3 = 4,left,Z,"['y', 'e', 'c', 'f', 'l']",right,0,0.49272050600120565,None,"['v', 's']",0,"[4.954217926002457, 5.09212764500262]","[0.2179173179974896, 0.2082476020004833]",space,5.532125208002981,None,0,0,0,0,,,,,,,,,0,4,4,4,,,,,,,,,,,,,,,,,,,,,131.07472081000014,,,,,,,,,,,,,,,,,,,,,,,,,,,,,,,,,,,,,,,131.06658405299822,131.36445714,131.36445714,131.86331598999823,,,,,131.86923884200223,131.87629677399673,132.87372245099687,,,,,,,,,,,,,,,,right,0,0.49272050600120565,None,,,,,,,,,,,,,,,,,,,,,,364,001,2025-05-15_15h30.21.482,Psych121Project_nback_ospan,2024.2.4,60,2025-05-15 15h30.31.191337 -0700,
0,0,0,,,white noise ,return,8.43858822400216,None,space,1.8501687570023932,None,,,,,Operation,None,( 7 - 5 ) × 2 = 4,right,P,None,right,1,0.6871582439998747,None,"['s', 'd', 'f', 'r', 'g']",0,"[1.171485755003232, 1.3234297480012174, 1.419556785003806, 1.7098934410023503, 1.7098934410023503]","[0.2157007169953431, 0.10789213499811012, 0.14031865399738308, 0.023446341998351272, 0.16363593099958962]",space,3.61285493500327,None,0,0,0,0,,,,,,,,,,,,,0,0,0,0,,,,,,,,,,,,,,,,,139.53557717699732,,,,,,,,,,,,,,,,,,,,,,,,,,,,,,,,,,,,,,,139.53037492599833,139.7968014529979,139.7968014529979,140.49251475899655,,,,,140.4973518400002,140.50761079999938,141.49468344599882,132.8756127759989,132.88347828399856,132.88347828399856,133.37365575799777,136.99136961199838,"['s', 'd', 'f', 'r', 'g']",0,"[1.171485755003232, 1.3234297480012174, 1.419556785003806, 1.7098934410023503, 1.7098934410023503]","[0.2157007169953431, 0.10789213499811012, 0.14031865399738308, 0.023446341998351272, 0.16363593099958962]",space,3.61285493500327,None,136.99166863100254,136.99963448999915,139.50710316999903,,,,,right,1,0.6871582439998747,None,,,,,,,,,,,,,,,,,,364,001,2025-05-15_15h30.21.482,Psych121Project_nback_ospan,2024.2.4,60,2025-05-15 15h30.31.191337 -0700,
1,1,0,,,white noise ,return,8.43858822400216,None,space,1.8501687570023932,None,,,,,Operation,None,( 7 + 6 ) × 2 = 28,left,C,None,right,0,0.5432066089997534,None,"['s', 'd', 'f', 'r', 'g']",0,"[1.171485755003232, 1.3234297480012174, 1.419556785003806, 1.7098934410023503, 1.7098934410023503]","[0.2157007169953431, 0.10789213499811012, 0.14031865399738308, 0.023446341998351272, 0.16363593099958962]",space,3.61285493500327,None,0,0,0,0,,,,,,,,,,,,,0,1,1,1,,,,,,,,,,,,,,,,,141.5077584449973,,,,,,,,,,,,,,,,,,,,,,,,,,,,,,,,,,,,,,,141.5020495889985,141.79871520999586,141.79871520999586,142.35237161799887,,,,,142.3551560049964,142.36359614200046,143.35258289599733,,,,,,,,,,,,,,,,,,,,right,0,0.5432066089997534,None,143.36432877399784,,,,,,,,,,,,,,,,,364,001,2025-05-15_15h30.21.482,Psych121Project_nback_ospan,2024.2.4,60,2025-05-15 15h30.31.191337 -0700,
2,2,0,,,white noise ,return,8.43858822400216,None,space,1.8501687570023932,None,,,,,Operation,None,( 9 + 7 ) × 3 = 48,right,O,None,right,1,0.3305680539997411,None,"['s', 'd', 'f', 'r', 'g']",0,"[1.171485755003232, 1.3234297480012174, 1.419556785003806, 1.7098934410023503, 1.7098934410023503]","[0.2157007169953431, 0.10789213499811012, 0.14031865399738308, 0.023446341998351272, 0.16363593099958962]",space,3.61285493500327,None,0,0,0,0,,,,,,,,,,,,,0,2,2,2,,,,,,,,,,,,,,,,,143.36432877399784,,,,,,,,,,,,,,,,,,,,,,,,,,,,,,,,,,,,,,,143.35865503700188,143.64933234199998,143.64933234199998,143.98512106700218,,,,,143.99262299099792,143.99947581400193,144.9874688819982,,,,,,,,,,,,,,,,,,,,right,1,0.3305680539997411,None,,,,,,,,,,,,,,,,,,364,001,2025-05-15_15h30.21.482,Psych121Project_nback_ospan,2024.2.4,60,2025-05-15 15h30.31.191337 -0700,
3,3,0,,,white noise ,return,8.43858822400216,None,space,1.8501687570023932,None,,,,,Operation,None,( 4 - 4 ) × 2 = 0,right,B,None,right,1,0.7237781650037505,None,"['s', 'd', 'f', 'r', 'g']",0,"[1.171485755003232, 1.3234297480012174, 1.419556785003806, 1.7098934410023503, 1.7098934410023503]","[0.2157007169953431, 0.10789213499811012, 0.14031865399738308, 0.023446341998351272, 0.16363593099958962]",space,3.61285493500327,None,0,0,0,0,,,,,,,,,,,,,0,3,3,3,,,,,,,,,,,,,,,,,144.99994045499625,,,,,,,,,,,,,,,,,,,,,,,,,,,,,,,,,,,,,,,144.9945646089982,145.30912785099645,145.30912785099645,146.04216447300132,,,,,146.04468511600135,146.0523505999954,147.04888416799804,,,,,,,,,,,,,,,,,,,,right,1,0.7237781650037505,None,,,,,,,,,,,,,,,,,,364,001,2025-05-15_15h30.21.482,Psych121Project_nback_ospan,2024.2.4,60,2025-05-15 15h30.31.191337 -0700,
4,4,0,,,white noise ,return,8.43858822400216,None,space,1.8501687570023932,None,,,,,Operation,None,( 9 - 5 ) × 2 = 8,right,X,"['s', 'p', 'c', 'o', 'b']",left,0,0.3683328499973868,None,"['s', 'd', 'f', 'r', 'g']",0,"[1.171485755003232, 1.3234297480012174, 1.419556785003806, 1.7098934410023503, 1.7098934410023503]","[0.2157007169953431, 0.10789213499811012, 0.14031865399738308, 0.023446341998351272, 0.16363593099958962]",space,3.61285493500327,None,0,0,0,0,,,,,,,,,,,,,0,4,4,4,,,,,,,,,,,,,,,,,147.06024539200007,,,,,,,,,,,,,,,,,,,,,,,,,,,,,,,,,,,,,,,147.05215633299667,147.34849224599748,147.34849224599748,147.73434127699875,,,,,147.74039364200144,147.74787297500006,148.74153220599692,,,,,,,,,,,,,,,,,,,,left,0,0.3683328499973868,None,,,,,,,,,,,,,,,,,,364,001,2025-05-15_15h30.21.482,Psych121Project_nback_ospan,2024.2.4,60,2025-05-15 15h30.31.191337 -0700,
0,0,0,,,white noise ,return,8.43858822400216,None,space,1.8501687570023932,None,,,,,Operation,None,( 4 + 5 ) × 2 = 16,left,H,None,right,0,0.8454327010040288,None,"['s', 'f']",0,"[0.6807617119993665, 0.834597091001342]","[0.08002930400107289, 0.20745192899630638]",space,1.4405563319960493,None,0,0,0,0,,,,,,,,,,,,,,,,,0,0,0,0,,,,,,,,,,,,,153.24879762699857,,,,,,,,,,,,,,,,,,,,,,,,,,,,,,,,,,,,,,,153.24142174499866,153.52172021399747,153.52172021399747,154.37595909099764,,,,,154.38252792799904,154.39023337500112,155.37655557700054,148.74342263799917,148.75187868400099,148.75187868400099,149.25619869399816,150.7187891989961,"['s', 'f']",0,"[0.6807617119993665, 0.834597091001342]","[0.08002930400107289, 0.20745192899630638]",space,1.4405563319960493,None,150.71890652000002,150.73072080600105,153.2191893499985,,,,,,,,,,right,0,0.8454327010040288,None,,,,,,,,,,,,,364,001,2025-05-15_15h30.21.482,Psych121Project_nback_ospan,2024.2.4,60,2025-05-15 15h30.31.191337 -0700,
1,1,0,,,white noise ,return,8.43858822400216,None,space,1.8501687570023932,None,,,,,Operation,None,( 7 - 4 ) × 3 = 9,right,D,None,right,1,0.7810939320042962,None,"['s', 'f']",0,"[0.6807617119993665, 0.834597091001342]","[0.08002930400107289, 0.20745192899630638]",space,1.4405563319960493,None,0,0,0,0,,,,,,,,,,,,,,,,,0,1,1,1,,,,,,,,,,,,,155.3890725090023,,,,,,,,,,,,,,,,,,,,,,,,,,,,,,,,,,,,,,,155.38180246499542,155.6925559789961,155.6925559789961,156.47778223099886,,,,,156.48085471399827,156.49150070700125,157.488115068998,,,,,,,,,,,,,,,,,,,,,,,,,right,1,0.7810939320042962,None,,,,,,,,,,,,,364,001,2025-05-15_15h30.21.482,Psych121Project_nback_ospan,2024.2.4,60,2025-05-15 15h30.31.191337 -0700,
2,2,0,,,white noise ,return,8.43858822400216,None,space,1.8501687570023932,None,,,,,Operation,None,( 3 + 7 ) × 3 = 30,right,U,None,right,1,0.5844750489995931,None,"['s', 'f']",0,"[0.6807617119993665, 0.834597091001342]","[0.08002930400107289, 0.20745192899630638]",space,1.4405563319960493,None,0,0,0,0,,,,,,,,,,,,,,,,,0,2,2,2,,,,,,,,,,,,,157.50005346399848,,,,,,,,,,,,,,,,,,,,,,,,,,,,,,,,,,,,,,,157.49196975999803,157.78308055800153,157.78308055800153,158.37150996200216,,,,,158.3771868900003,158.3842416799962,159.38150706799934,,,,,,,,,,,,,,,,,,,,,,,,,right,1,0.5844750489995931,None,,,,,,,,,,,,,364,001,2025-05-15_15h30.21.482,Psych121Project_nback_ospan,2024.2.4,60,2025-05-15 15h30.31.191337 -0700,
3,3,0,,,white noise ,return,8.43858822400216,None,space,1.8501687570023932,None,,,,,Operation,None,( 6 - 9 ) × 3 = -9,right,H,None,right,1,0.7349933599980432,None,"['s', 'f']",0,"[0.6807617119993665, 0.834597091001342]","[0.08002930400107289, 0.20745192899630638]",space,1.4405563319960493,None,0,0,0,0,,,,,,,,,,,,,,,,,0,3,3,3,,,,,,,,,,,,,159.39317640999798,,,,,,,,,,,,,,,,,,,,,,,,,,,,,,,,,,,,,,,159.3849868469988,159.67653078700096,159.67653078700096,160.41739747599786,,,,,160.42097568600002,160.4304600280011,161.43401609199645,,,,,,,,,,,,,,,,,,,,,,,,,right,1,0.7349933599980432,None,,,,,,,,,,,,,364,001,2025-05-15_15h30.21.482,Psych121Project_nback_ospan,2024.2.4,60,2025-05-15 15h30.31.191337 -0700,
4,4,0,,,white noise ,return,8.43858822400216,None,space,1.8501687570023932,None,,,,,Operation,None,( 9 - 8 ) × 3 = 5,left,U,"['o', 'h', 'd', 'u', 'h']",right,0,0.8887441650003893,None,"['s', 'f']",0,"[0.6807617119993665, 0.834597091001342]","[0.08002930400107289, 0.20745192899630638]",space,1.4405563319960493,None,0,0,0,0,,,,,,,,,,,,,,,,,0,4,4,4,,,,,,,,,,,,,161.44588950999605,,,,,,,,,,,,,,,,,,,,,,,,,,,,,,,,,,,,,,,161.4387094900012,161.72880495299614,161.72880495299614,162.6301351889997,,,,,162.63349447899964,162.6417681919993,163.6305461419979,,,,,,,,,,,,,,,,,,,,,,,,,right,0,0.8887441650003893,None,,,,,,,,,,,,,364,001,2025-05-15_15h30.21.482,Psych121Project_nback_ospan,2024.2.4,60,2025-05-15 15h30.31.191337 -0700,
0,0,0,,,white noise ,return,8.43858822400216,None,space,1.8501687570023932,None,,,,,Operation,None,( 3 - 3 ) × 3 = -1,left,W,None,right,0,0.5870742780025466,None,"['j', 'g', 'v']",0,"[0.8616781050004647, 0.9895242489947123, 1.0141983499997878]","[0.13577264999912586, 0.06358119800279383, 0.1714313089978532]",space,1.7277124469983391,None,0,0,0,0,,,,,,,,,,,,,,,,,,,,,0,0,0,0,,,,,,,,,168.4210659119999,,,,,,,,,,,,,,,,,,,,,,,,,,,,,,,,,,,,,,,168.41454161000001,168.70599448400026,168.70599448400026,169.29510964999645,,,,,169.30060801599757,169.31074254000123,170.2976059759967,163.63341608399787,163.64121311200142,163.64121311200142,164.14182510400133,165.88506646500173,"['j', 'g', 'v']",0,"[0.8616781050004647, 0.9895242489947123, 1.0141983499997878]","[0.13577264999912586, 0.06358119800279383, 0.1714313089978532]",space,1.7277124469983391,None,165.8853427360009,165.89824094199867,168.39297037499637,,,,,,,,,,,,,,right,0,0.5870742780025466,None,,,,,,,,,364,001,2025-05-15_15h30.21.482,Psych121Project_nback_ospan,2024.2.4,60,2025-05-15 15h30.31.191337 -0700,
1,1,0,,,white noise ,return,8.43858822400216,None,space,1.8501687570023932,None,,,,,Operation,None,( 4 - 5 ) × 3 = -5,left,M,None,right,0,0.44379258399567334,None,"['j', 'g', 'v']",0,"[0.8616781050004647, 0.9895242489947123, 1.0141983499997878]","[0.13577264999912586, 0.06358119800279383, 0.1714313089978532]",space,1.7277124469983391,None,0,0,0,0,,,,,,,,,,,,,,,,,,,,,0,1,1,1,,,,,,,,,170.3096767199968,,,,,,,,,,,,,,,,,,,,,,,,,,,,,,,,,,,,,,,170.30136091900204,170.60776184399583,170.60776184399583,171.0590063319978,,,,,171.06574606800132,171.07297631599795,172.072551407,,,,,,,,,,,,,,,,,,,,,,,,,,,,,right,0,0.44379258399567334,None,,,,,,,,,364,001,2025-05-15_15h30.21.482,Psych121Project_nback_ospan,2024.2.4,60,2025-05-15 15h30.31.191337 -0700,
2,2,0,,,white noise ,return,8.43858822400216,None,space,1.8501687570023932,None,,,,,Operation,None,( 8 - 8 ) × 3 = 0,right,R,None,right,1,0.6538614099990809,None,"['j', 'g', 'v']",0,"[0.8616781050004647, 0.9895242489947123, 1.0141983499997878]","[0.13577264999912586, 0.06358119800279383, 0.1714313089978532]",space,1.7277124469983391,None,0,0,0,0,,,,,,,,,,,,,,,,,,,,,0,2,2,2,,,,,,,,,172.0855626699995,,,,,,,,,,,,,,,,,,,,,,,,,,,,,,,,,,,,,,,172.07816248599556,172.36446737899678,172.36446737899678,173.0382836389981,,,,,173.04064424199896,173.05120175400225,174.04253377499845,,,,,,,,,,,,,,,,,,,,,,,,,,,,,right,1,0.6538614099990809,None,,,,,,,,,364,001,2025-05-15_15h30.21.482,Psych121Project_nback_ospan,2024.2.4,60,2025-05-15 15h30.31.191337 -0700,
3,3,0,,,white noise ,return,8.43858822400216,None,space,1.8501687570023932,None,,,,,Operation,None,( 8 - 4 ) × 3 = 12,right,G,None,right,1,0.6035776809949311,None,"['j', 'g', 'v']",0,"[0.8616781050004647, 0.9895242489947123, 1.0141983499997878]","[0.13577264999912586, 0.06358119800279383, 0.1714313089978532]",space,1.7277124469983391,None,0,0,0,0,,,,,,,,,,,,,,,,,,,,,0,3,3,3,,,,,,,,,174.0542691199953,,,,,,,,,,,,,,,,,,,,,,,,,,,,,,,,,,,,,,,174.04581904099905,174.33437009599584,174.33437009599584,174.9451333149991,,,,,174.95105430400145,174.9571678430002,175.96286407599837,,,,,,,,,,,,,,,,,,,,,,,,,,,,,right,1,0.6035776809949311,None,,,,,,,,,364,001,2025-05-15_15h30.21.482,Psych121Project_nback_ospan,2024.2.4,60,2025-05-15 15h30.31.191337 -0700,
4,4,0,,,white noise ,return,8.43858822400216,None,space,1.8501687570023932,None,,,,,Operation,None,( 7 + 9 ) × 1 = 16,right,S,"['e', 'w', 'm', 'r', 'g']",right,1,0.7438150929956464,None,"['j', 'g', 'v']",0,"[0.8616781050004647, 0.9895242489947123, 1.0141983499997878]","[0.13577264999912586, 0.06358119800279383, 0.1714313089978532]",space,1.7277124469983391,None,0,0,0,0,,,,,,,,,,,,,,,,,,,,,0,4,4,4,,,,,,,,,175.97589997600153,,,,,,,,,,,,,,,,,,,,,,,,,,,,,,,,,,,,,,,175.9671015979984,176.25233142400248,176.25233142400248,177.01760356599698,,,,,177.0201304020011,177.02862853999977,178.03128903800098,,,,,,,,,,,,,,,,,,,,,,,,,,,,,right,1,0.7438150929956464,None,,,,,,,,,364,001,2025-05-15_15h30.21.482,Psych121Project_nback_ospan,2024.2.4,60,2025-05-15 15h30.31.191337 -0700,
0,0,0,,,white noise ,return,8.43858822400216,None,space,1.8501687570023932,None,,,,,Operation,None,( 8 - 8 ) × 2 = 2,left,O,None,right,0,0.5508424030049355,None,"['g', 'c', 't']",0,"[0.6888687559985556, 0.8060503539963975, 1.0456353039990063]","[0.09617781999986619, 0.2518619850015966, 0.10076293699967209]",space,1.4569861219933955,None,0,0,0,0,,,,,,,,,,,,,,,,,,,,,,,,,0,0,0,0,,,,,182.54853950699908,,,,,,,,,,,,,,,,,,,,,,,,,,,,,,,,,,,,,,,182.54176594599994,182.8202780540014,182.8202780540014,183.38407152499713,,,,,183.38785210700007,183.39783586799604,184.38794201800192,178.0329837379977,178.04895438200037,178.04895438200037,178.5351117859973,180.01552017899667,"['g', 'c', 't']",0,"[0.6888687559985556, 0.8060503539963975, 1.0456353039990063]","[0.09617781999986619, 0.2518619850015966, 0.10076293699967209]",space,1.4569861219933955,None,180.0156527079962,180.0295359410011,182.5215077920002,,,,,,,,,,,,,,,,,,right,0,0.5508424030049355,None,,,,,364,001,2025-05-15_15h30.21.482,Psych121Project_nback_ospan,2024.2.4,60,2025-05-15 15h30.31.191337 -0700,
1,1,0,,,white noise ,return,8.43858822400216,None,space,1.8501687570023932,None,,,,,Operation,None,( 1 + 2 ) × 1 = 4,left,Q,None,right,0,0.4415964629952214,None,"['g', 'c', 't']",0,"[0.6888687559985556, 0.8060503539963975, 1.0456353039990063]","[0.09617781999986619, 0.2518619850015966, 0.10076293699967209]",space,1.4569861219933955,None,0,0,0,0,,,,,,,,,,,,,,,,,,,,,,,,,0,1,1,1,,,,,184.3999653639985,,,,,,,,,,,,,,,,,,,,,,,,,,,,,,,,,,,,,,,184.39303774700238,184.70049072700203,184.70049072700203,185.15609272300208,,,,,185.16071229099907,185.16911127899948,186.16874268699758,,,,,,,,,,,,,,,,,,,,,,,,,,,,,,,,,right,0,0.4415964629952214,None,,,,,364,001,2025-05-15_15h30.21.482,Psych121Project_nback_ospan,2024.2.4,60,2025-05-15 15h30.31.191337 -0700,
2,2,0,,,white noise ,return,8.43858822400216,None,space,1.8501687570023932,None,,,,,Operation,None,( 8 - 9 ) × 1 = -3,left,D,None,left,1,0.5309936979974736,None,"['g', 'c', 't']",0,"[0.6888687559985556, 0.8060503539963975, 1.0456353039990063]","[0.09617781999986619, 0.2518619850015966, 0.10076293699967209]",space,1.4569861219933955,None,0,0,0,0,,,,,,,,,,,,,,,,,,,,,,,,,0,2,2,2,,,,,186.1808936189991,,,,,,,,,,,,,,,,,,,,,,,,,,,,,,,,,,,,,,,186.17327861199738,186.45163712799695,186.45163712799695,187.00213565200102,,,,,187.0047612490016,187.01446008299536,188.00249301800068,,,,,,,,,,,,,,,,,,,,,,,,,,,,,,,,,left,1,0.5309936979974736,None,,,,,364,001,2025-05-15_15h30.21.482,Psych121Project_nback_ospan,2024.2.4,60,2025-05-15 15h30.31.191337 -0700,
3,3,0,,,white noise ,return,8.43858822400216,None,space,1.8501687570023932,None,,,,,Operation,None,( 8 + 2 ) × 3 = 30,right,X,None,left,0,0.6528169930024887,None,"['g', 'c', 't']",0,"[0.6888687559985556, 0.8060503539963975, 1.0456353039990063]","[0.09617781999986619, 0.2518619850015966, 0.10076293699967209]",space,1.4569861219933955,None,0,0,0,0,,,,,,,,,,,,,,,,,,,,,,,,,0,3,3,3,,,,,188.0151381120013,,,,,,,,,,,,,,,,,,,,,,,,,,,,,,,,,,,,,,,188.00630873799673,188.32013842799643,188.32013842799643,188.99117989099614,,,,,188.99545545099681,189.00525201299752,189.9984595019996,,,,,,,,,,,,,,,,,,,,,,,,,,,,,,,,,left,0,0.6528169930024887,None,,,,,364,001,2025-05-15_15h30.21.482,Psych121Project_nback_ospan,2024.2.4,60,2025-05-15 15h30.31.191337 -0700,
4,4,0,,,white noise ,return,8.43858822400216,None,space,1.8501687570023932,None,,,,,Operation,None,( 8 + 8 ) × 2 = 30,left,G,"['k', 'o', 'q', 'd', 'x']",left,1,0.7365724539995426,None,"['g', 'c', 't']",0,"[0.6888687559985556, 0.8060503539963975, 1.0456353039990063]","[0.09617781999986619, 0.2518619850015966, 0.10076293699967209]",space,1.4569861219933955,None,0,0,0,0,,,,,,,,,,,,,,,,,,,,,,,,,0,4,4,4,,,,,190.0096994350024,,,,,,,,,,,,,,,,,,,,,,,,,,,,,,,,,,,,,,,190.00175551800203,190.3150207610015,190.3150207610015,191.06046031000005,,,,,191.06259314799536,191.074230926999,192.08058451100078,,,,,,,,,,,,,,,,,,,,,,,,,,,,,,,,,left,1,0.7365724539995426,None,,,,,364,001,2025-05-15_15h30.21.482,Psych121Project_nback_ospan,2024.2.4,60,2025-05-15 15h30.31.191337 -0700,
0,0,0,,,white noise ,return,8.43858822400216,None,space,1.8501687570023932,None,,,,,Operation,None,( 6 - 3 ) × 3 = 7,left,G,None,right,0,0.40181258999655256,None,"['h', 'v']",0,"[0.3385843699943507, 0.43824175899499096]","[0.17941604500083486, 0.17208479300461477]",space,0.8793241669991403,None,0,0,0,0,,,,,,,,,,,,,,,,,,,,,,,,,,,,,0,0,0,0,196.00785639199603,,,,,,,,,,,,,,,,,,,,,,,,,,,,,,,,,,,,,,,196.00128539800062,196.28285071299615,196.28285071299615,196.69919622399902,,,,,196.6994006179957,196.7113071509957,197.71205260600254,192.08219505099987,192.0899970390019,192.0899970390019,192.58548300099937,193.4694279050018,"['h', 'v']",0,"[0.3385843699943507, 0.43824175899499096]","[0.17941604500083486, 0.17208479300461477]",space,0.8793241669991403,None,193.469591355999,193.48132781599998,195.97365439600253,,,,,,,,,,,,,,,,,,,,,,right,0,0.40181258999655256,None,364,001,2025-05-15_15h30.21.482,Psych121Project_nback_ospan,2024.2.4,60,2025-05-15 15h30.31.191337 -0700,
1,1,0,,,white noise ,return,8.43858822400216,None,space,1.8501687570023932,None,,,,,Operation,None,( 1 - 9 ) × 2 = -16,right,T,None,right,1,0.4193638610013295,None,"['h', 'v']",0,"[0.3385843699943507, 0.43824175899499096]","[0.17941604500083486, 0.17208479300461477]",space,0.8793241669991403,None,0,0,0,0,,,,,,,,,,,,,,,,,,,,,,,,,,,,,0,1,1,1,197.7269832460006,,,,,,,,,,,,,,,,,,,,,,,,,,,,,,,,,,,,,,,197.72002804999647,198.0078411009963,198.0078411009963,198.45303427799809,,,,,198.45828190299653,198.46599582799536,199.4607962049995,,,,,,,,,,,,,,,,,,,,,,,,,,,,,,,,,,,,,right,1,0.4193638610013295,None,364,001,2025-05-15_15h30.21.482,Psych121Project_nback_ospan,2024.2.4,60,2025-05-15 15h30.31.191337 -0700,
2,2,0,,,white noise ,return,8.43858822400216,None,space,1.8501687570023932,None,,,,,Operation,None,( 2 + 1 ) × 2 = 4,left,N,None,right,0,0.390018872996734,None,"['h', 'v']",0,"[0.3385843699943507, 0.43824175899499096]","[0.17941604500083486, 0.17208479300461477]",space,0.8793241669991403,None,0,0,0,0,,,,,,,,,,,,,,,,,,,,,,,,,,,,,0,2,2,2,199.47299489899888,,,,,,,,,,,,,,,,,,,,,,,,,,,,,,,,,,,,,,,199.46591293699748,199.77764671699697,199.77764671699697,200.1886135120003,,,,,200.1907580920015,200.2013638540011,201.19651656899805,,,,,,,,,,,,,,,,,,,,,,,,,,,,,,,,,,,,,right,0,0.390018872996734,None,364,001,2025-05-15_15h30.21.482,Psych121Project_nback_ospan,2024.2.4,60,2025-05-15 15h30.31.191337 -0700,
3,3,0,,,white noise ,return,8.43858822400216,None,space,1.8501687570023932,None,,,,,Operation,None,( 3 - 1 ) × 3 = 6,right,Y,None,right,1,0.4374217580043478,None,"['h', 'v']",0,"[0.3385843699943507, 0.43824175899499096]","[0.17941604500083486, 0.17208479300461477]",space,0.8793241669991403,None,0,0,0,0,,,,,,,,,,,,,,,,,,,,,,,,,,,,,0,3,3,3,201.21562893399823,,,,,,,,,,,,,,,,,,,,,,,,,,,,,,,,,,,,,,,201.2001248969973,201.49519846499607,201.49519846499607,201.95211848599865,,,,,201.95799271800206,201.96550932800164,202.95894924599997,,,,,,,,,,,,,,,,,,,,,,,,,,,,,,,,,,,,,right,1,0.4374217580043478,None,364,001,2025-05-15_15h30.21.482,Psych121Project_nback_ospan,2024.2.4,60,2025-05-15 15h30.31.191337 -0700,
4,4,0,,,white noise ,return,8.43858822400216,None,space,1.8501687570023932,None,,,,,Operation,None,( 7 - 8 ) × 3 = -4,left,O,"['u', 'g', 't', 'n', 'y']",right,0,0.5789002290039207,None,"['h', 'v']",0,"[0.3385843699943507, 0.43824175899499096]","[0.17941604500083486, 0.17208479300461477]",space,0.8793241669991403,None,0,0,0,0,,,,,,,,,,,,,,,,,,,,,,,,,,,,,0,4,4,4,202.96977130299638,,,,,,,,,,,,,,,,,,,,,,,,,,,,,,,,,,,,,,,202.96261691799737,203.2542364559995,203.2542364559995,203.84071756900084,,,,,203.84406991199648,203.85413243700168,204.85029103399575,,,,,,,,,,,,,,,,,,,,,,,,,,,,,,,,,,,,,right,0,0.5789002290039207,None,364,001,2025-05-15_15h30.21.482,Psych121Project_nback_ospan,2024.2.4,60,2025-05-15 15h30.31.191337 -0700,
0,0,0,,,white noise ,return,8.43858822400216,None,space,1.8501687570023932,None,,,,,,,,,,,,,,,"['j', 'g', 'v']",0,"[0.3604778910012101, 0.47677496499818517, 0.5483767359983176]","[0.15963536399794975, 0.10727292999945348, 0.15999888400256168]",space,1.302810191999015,None,0,0,0,0,,,,,,,,,,,,,,,,,,,,,,,,,,,,,,,,,,,,,,,,,,,,,,,,,,,,,,,,,,,,,,,,,,,,,,,,,,,,,,,,,,,204.85376687799726,204.8602463569987,204.8602463569987,205.35893919899536,206.67965744499816,"['j', 'g', 'v']",0,"[0.3604778910012101, 0.47677496499818517, 0.5483767359983176]","[0.15963536399794975, 0.10727292999945348, 0.15999888400256168]",space,1.302810191999015,None,,,,,,,,,,,,,,,,,,,,,,,,,,,,,364,001,2025-05-15_15h30.21.482,Psych121Project_nback_ospan,2024.2.4,60,2025-05-15 15h30.31.191337 -0700,
0,0,0,A,None,   binaural,return,9.234927321995201,None,space,1.4088136610007496,None,None,1,,,,,,,,,,,,,,,,,,,,1,0,1,0,0,0,0,0,,,,,,,,,,,,,,,,,,,,,,,,,,,,,227.28781896500004,,206.68026255499717,206.68034785799682,215.89310066300095,215.89847615399776,215.90574722499878,216.0178556719984,216.0178556719984,216.0178556719984,225.25826762799989,   binaural,return,9.234927321995201,None,225.25893196000106,225.2721691619954,225.77306040899566,227.20038119299716,space,1.4088136610007496,None,227.27044848899823,228.7149424570016,228.7149424570016,229.21794791900174,229.70507048499712,None,1,,,,,,,,,,,,,,,,,,,,,,,,,,,,,,,,,,,,,,,,,,,,,,,,,,,,,,,,,,,,,,364,001,2025-05-15_15h30.21.482,Psych121Project_nback_ospan,2024.2.4,60,2025-05-15 15h30.31.191337 -0700,
1,1,0,R,None,   binaural,return,9.234927321995201,None,space,1.4088136610007496,None,None,1,,,,,,,,,,,,,,,,,,,,1,0,1,0,0,1,1,1,,,,,,,,,,,,,,,,,,,,,,,,,,,,,229.71700700600195,,,,,,,,,,,,,,,,,,,,,,229.71013499199762,231.19849347000127,231.19849347000127,231.72354692399676,232.19723490400065,None,1,232.22293291900132,,,,,,,,,,,,,,,,,,,,,,,,,,,,,,,,,,,,,,,,,,,,,,,,,,,,,,,,,,,,,364,001,2025-05-15_15h30.21.482,Psych121Project_nback_ospan,2024.2.4,60,2025-05-15 15h30.31.191337 -0700,
2,2,0,K,None,   binaural,return,9.234927321995201,None,space,1.4088136610007496,None,None,1,,,,,,,,,,,,,,,,,,,,1,0,1,0,0,2,2,2,,,,,,,,,,,,,,,,,,,,,,,,,,,,,232.22293291900132,,,,,,,,,,,,,,,,,,,,,,232.2151591169968,233.712345371001,233.712345371001,234.21402398400096,234.70788983799866,None,1,,,,,,,,,,,,,,,,,,,,,,,,,,,,,,,,,,,,,,,,,,,,,,,,,,,,,,,,,,,,,,364,001,2025-05-15_15h30.21.482,Psych121Project_nback_ospan,2024.2.4,60,2025-05-15 15h30.31.191337 -0700,
3,3,0,R,None,   binaural,return,9.234927321995201,None,space,1.4088136610007496,None,None,1,,,,,,,,,,,,,,,,,,,,1,0,1,0,0,3,3,3,,,,,,,,,,,,,,,,,,,,,,,,,,,,,234.71677615799854,,,,,,,,,,,,,,,,,,,,,,234.71158248899883,236.21784310699877,236.21784310699877,236.73466248399927,237.2082079929969,None,1,,,,,,,,,,,,,,,,,,,,,,,,,,,,,,,,,,,,,,,,,,,,,,,,,,,,,,,,,,,,,,364,001,2025-05-15_15h30.21.482,Psych121Project_nback_ospan,2024.2.4,60,2025-05-15 15h30.31.191337 -0700,
4,4,0,P,None,   binaural,return,9.234927321995201,None,space,1.4088136610007496,None,None,1,,,,,,,,,,,,,,,,,,,,1,0,1,0,0,4,4,4,,,,,,,,,,,,,,,,,,,,,,,,,,,,,237.21744710899657,,,,,,,,,,,,,,,,,,,,,,237.2121963190002,238.71896749099687,238.71896749099687,239.23665779399744,239.70807769199746,None,1,,,,,,,,,,,,,,,,,,,,,,,,,,,,,,,,,,,,,,,,,,,,,,,,,,,,,,,,,,,,,,364,001,2025-05-15_15h30.21.482,Psych121Project_nback_ospan,2024.2.4,60,2025-05-15 15h30.31.191337 -0700,
5,5,0,K,space,   binaural,return,9.234927321995201,None,space,1.4088136610007496,None,None,0,,,,,,,,,,,,,,,,,,,,1,0,1,0,0,5,5,5,,,,,,,,,,,,,,,,,,,,,,,,,,,,,239.71902583300107,,,,,,,,,,,,,,,,,,,,,,239.71241766599996,241.2141836160008,241.2141836160008,241.73817074699764,242.21115016900148,None,0,,,,,,,,,,,,,,,,,,,,,,,,,,,,,,,,,,,,,,,,,,,,,,,,,,,,,,,,,,,,,,364,001,2025-05-15_15h30.21.482,Psych121Project_nback_ospan,2024.2.4,60,2025-05-15 15h30.31.191337 -0700,
6,6,0,A,None,   binaural,return,9.234927321995201,None,space,1.4088136610007496,None,None,1,,,,,,,,,,,,,,,,,,,,1,0,1,0,0,6,6,6,,,,,,,,,,,,,,,,,,,,,,,,,,,,,242.22006174799753,,,,,,,,,,,,,,,,,,,,,,242.2131189819993,243.70405042899802,243.70405042899802,244.20245520599565,244.71304409099685,None,1,,,,,,,,,,,,,,,,,,,,,,,,,,,,,,,,,,,,,,,,,,,,,,,,,,,,,,,,,,,,,,364,001,2025-05-15_15h30.21.482,Psych121Project_nback_ospan,2024.2.4,60,2025-05-15 15h30.31.191337 -0700,
7,7,0,B,None,   binaural,return,9.234927321995201,None,space,1.4088136610007496,None,None,1,,,,,,,,,,,,,,,,,,,,1,0,1,0,0,7,7,7,,,,,,,,,,,,,,,,,,,,,,,,,,,,,244.7269052729971,,,,,,,,,,,,,,,,,,,,,,244.71937670199986,246.21044918600091,246.21044918600091,246.72690316700027,247.20446889400046,None,1,,,,,,,,,,,,,,,,,,,,,,,,,,,,,,,,,,,,,,,,,,,,,,,,,,,,,,,,,,,,,,364,001,2025-05-15_15h30.21.482,Psych121Project_nback_ospan,2024.2.4,60,2025-05-15 15h30.31.191337 -0700,
8,8,0,E,None,   binaural,return,9.234927321995201,None,space,1.4088136610007496,None,None,1,,,,,,,,,,,,,,,,,,,,1,0,1,0,0,8,8,8,,,,,,,,,,,,,,,,,,,,,,,,,,,,,247.2132953149994,,,,,,,,,,,,,,,,,,,,,,247.20642145199963,248.7185348330022,248.7185348330022,249.2336020799994,249.70912281899655,None,1,,,,,,,,,,,,,,,,,,,,,,,,,,,,,,,,,,,,,,,,,,,,,,,,,,,,,,,,,,,,,,364,001,2025-05-15_15h30.21.482,Psych121Project_nback_ospan,2024.2.4,60,2025-05-15 15h30.31.191337 -0700,
9,9,0,A,space,   binaural,return,9.234927321995201,None,space,1.4088136610007496,None,None,0,,,,,,,,,,,,,,,,,,,,1,0,1,0,0,9,9,9,,,,,,,,,,,,,,,,,,,,,,,,,,,,,249.72789802299667,,,,,,,,,,,,,,,,,,,,,,249.71124779099773,251.20859054399625,251.20859054399625,251.72368093599653,252.20256487999723,None,0,,,,,,,,,,,,,,,,,,,,,,,,,,,,,,,,,,,,,,,,,,,,,,,,,,,,,,,,,,,,,,364,001,2025-05-15_15h30.21.482,Psych121Project_nback_ospan,2024.2.4,60,2025-05-15 15h30.31.191337 -0700,
10,10,0,P,None,   binaural,return,9.234927321995201,None,space,1.4088136610007496,None,None,1,,,,,,,,,,,,,,,,,,,,1,0,1,0,0,10,10,10,,,,,,,,,,,,,,,,,,,,,,,,,,,,,252.22152816299786,,,,,,,,,,,,,,,,,,,,,,252.20485471600114,253.72403425799712,253.72403425799712,254.24078121899947,254.71383978999802,None,1,,,,,,,,,,,,,,,,,,,,,,,,,,,,,,,,,,,,,,,,,,,,,,,,,,,,,,,,,,,,,,364,001,2025-05-15_15h30.21.482,Psych121Project_nback_ospan,2024.2.4,60,2025-05-15 15h30.31.191337 -0700,
11,11,0,B,None,   binaural,return,9.234927321995201,None,space,1.4088136610007496,None,None,1,,,,,,,,,,,,,,,,,,,,1,0,1,0,0,11,11,11,,,,,,,,,,,,,,,,,,,,,,,,,,,,,254.73313692899683,,,,,,,,,,,,,,,,,,,,,,254.71575978599867,256.22326011599944,256.22326011599944,256.74036370799877,257.20487852199585,None,1,,,,,,,,,,,,,,,,,,,,,,,,,,,,,,,,,,,,,,,,,,,,,,,,,,,,,,,,,,,,,,364,001,2025-05-15_15h30.21.482,Psych121Project_nback_ospan,2024.2.4,60,2025-05-15 15h30.31.191337 -0700,
12,12,0,A,space,   binaural,return,9.234927321995201,None,space,1.4088136610007496,None,None,0,,,,,,,,,,,,,,,,,,,,1,0,1,0,0,12,12,12,,,,,,,,,,,,,,,,,,,,,,,,,,,,,257.21549317899917,,,,,,,,,,,,,,,,,,,,,,257.20885369199823,258.7238017609998,258.7238017609998,259.2372733070006,259.7078102559972,None,0,,,,,,,,,,,,,,,,,,,,,,,,,,,,,,,,,,,,,,,,,,,,,,,,,,,,,,,,,,,,,,364,001,2025-05-15_15h30.21.482,Psych121Project_nback_ospan,2024.2.4,60,2025-05-15 15h30.31.191337 -0700,
13,13,0,N,None,   binaural,return,9.234927321995201,None,space,1.4088136610007496,None,None,1,,,,,,,,,,,,,,,,,,,,1,0,1,0,0,13,13,13,,,,,,,,,,,,,,,,,,,,,,,,,,,,,259.71707108600094,,,,,,,,,,,,,,,,,,,,,,259.7105252809997,261.22412722599984,261.22412722599984,261.7408595579982,262.21739941399574,None,1,,,,,,,,,,,,,,,,,,,,,,,,,,,,,,,,,,,,,,,,,,,,,,,,,,,,,,,,,,,,,,364,001,2025-05-15_15h30.21.482,Psych121Project_nback_ospan,2024.2.4,60,2025-05-15 15h30.31.191337 -0700,
14,14,0,B,space,   binaural,return,9.234927321995201,None,space,1.4088136610007496,None,None,0,,,,,,,,,,,,,,,,,,,,1,0,1,0,0,14,14,14,,,,,,,,,,,,,,,,,,,,,,,,,,,,,262.2354949590008,,,,,,,,,,,,,,,,,,,,,,262.219377706002,263.72362008699565,263.72362008699565,264.2273940469968,264.72469986000215,None,0,,,,,,,,,,,,,,,,,,,,,,,,,,,,,,,,,,,,,,,,,,,,,,,,,,,,,,,,,,,,,,364,001,2025-05-15_15h30.21.482,Psych121Project_nback_ospan,2024.2.4,60,2025-05-15 15h30.31.191337 -0700,
15,15,0,T,None,   binaural,return,9.234927321995201,None,space,1.4088136610007496,None,None,1,,,,,,,,,,,,,,,,,,,,1,0,1,0,0,15,15,15,,,,,,,,,,,,,,,,,,,,,,,,,,,,,264.7375069749978,,,,,,,,,,,,,,,,,,,,,,264.7291510060022,266.21673122699576,266.21673122699576,266.72123988699605,267.207805637001,None,1,,,,,,,,,,,,,,,,,,,,,,,,,,,,,,,,,,,,,,,,,,,,,,,,,,,,,,,,,,,,,,364,001,2025-05-15_15h30.21.482,Psych121Project_nback_ospan,2024.2.4,60,2025-05-15 15h30.31.191337 -0700,
16,16,0,B,None,   binaural,return,9.234927321995201,None,space,1.4088136610007496,None,None,1,,,,,,,,,,,,,,,,,,,,1,0,1,0,0,16,16,16,,,,,,,,,,,,,,,,,,,,,,,,,,,,,267.2179514590025,,,,,,,,,,,,,,,,,,,,,,267.21000875299796,268.7081042159989,268.7081042159989,269.2093296620005,269.699501572999,None,1,269.70990878799785,,,,,,,,,,,,,,,,,,,,,,,,,,,,,,,,,,,,,,,,,,,,,,,,,,,,,,,,,,,,,364,001,2025-05-15_15h30.21.482,Psych121Project_nback_ospan,2024.2.4,60,2025-05-15 15h30.31.191337 -0700,
17,17,0,K,None,   binaural,return,9.234927321995201,None,space,1.4088136610007496,None,None,1,,,,,,,,,,,,,,,,,,,,1,0,1,0,0,17,17,17,,,,,,,,,,,,,,,,,,,,,,,,,,,,,269.70990878799785,,,,,,,,,,,,,,,,,,,,,,269.7034520169982,271.2047215450002,271.2047215450002,271.71117971599597,272.1990182180016,None,1,272.218171626002,,,,,,,,,,,,,,,,,,,,,,,,,,,,,,,,,,,,,,,,,,,,,,,,,,,,,,,,,,,,,364,001,2025-05-15_15h30.21.482,Psych121Project_nback_ospan,2024.2.4,60,2025-05-15 15h30.31.191337 -0700,
18,18,0,Y,None,   binaural,return,9.234927321995201,None,space,1.4088136610007496,None,None,1,,,,,,,,,,,,,,,,,,,,1,0,1,0,0,18,18,18,,,,,,,,,,,,,,,,,,,,,,,,,,,,,272.218171626002,,,,,,,,,,,,,,,,,,,,,,272.2079495520011,273.7150636590013,273.7150636590013,274.2123169490005,274.71269342499727,None,1,,,,,,,,,,,,,,,,,,,,,,,,,,,,,,,,,,,,,,,,,,,,,,,,,,,,,,,,,,,,,,364,001,2025-05-15_15h30.21.482,Psych121Project_nback_ospan,2024.2.4,60,2025-05-15 15h30.31.191337 -0700,
19,19,0,B,space,   binaural,return,9.234927321995201,None,space,1.4088136610007496,None,None,0,,,,,,,,,,,,,,,,,,,,1,0,1,0,0,19,19,19,,,,,,,,,,,,,,,,,,,,,,,,,,,,,274.72167157399963,,,,,,,,,,,,,,,,,,,,,,274.7151076279988,276.20882593699935,276.20882593699935,276.71538048699585,277.2135864660013,None,0,,,,,,,,,,,,,,,,,,,,,,,,,,,,,,,,,,,,,,,,,,,,,,,,,,,,,,,,,,,,,,364,001,2025-05-15_15h30.21.482,Psych121Project_nback_ospan,2024.2.4,60,2025-05-15 15h30.31.191337 -0700,
20,20,0,K,space,   binaural,return,9.234927321995201,None,space,1.4088136610007496,None,None,0,,,,,,,,,,,,,,,,,,,,1,0,1,0,0,20,20,20,,,,,,,,,,,,,,,,,,,,,,,,,,,,,277.22504948999995,,,,,,,,,,,,,,,,,,,,,,277.21633008900244,278.7173925929965,278.7173925929965,279.2352449719983,279.7158815619987,None,0,,,,,,,,,,,,,,,,,,,,,,,,,,,,,,,,,,,,,,,,,,,,,,,,,,,,,,,,,,,,,,364,001,2025-05-15_15h30.21.482,Psych121Project_nback_ospan,2024.2.4,60,2025-05-15 15h30.31.191337 -0700,
21,21,0,L,None,   binaural,return,9.234927321995201,None,space,1.4088136610007496,None,None,1,,,,,,,,,,,,,,,,,,,,1,0,1,0,0,21,21,21,,,,,,,,,,,,,,,,,,,,,,,,,,,,,279.734061420997,,,,,,,,,,,,,,,,,,,,,,279.7180481239993,281.2115703829986,281.2115703829986,281.7277168559958,282.2061146029955,None,1,,,,,,,,,,,,,,,,,,,,,,,,,,,,,,,,,,,,,,,,,,,,,,,,,,,,,,,,,,,,,,364,001,2025-05-15_15h30.21.482,Psych121Project_nback_ospan,2024.2.4,60,2025-05-15 15h30.31.191337 -0700,
22,22,0,P,space,   binaural,return,9.234927321995201,None,space,1.4088136610007496,None,None,0,,,,,,,,,,,,,,,,,,,,1,0,1,0,0,22,22,22,,,,,,,,,,,,,,,,,,,,,,,,,,,,,282.2154738429963,,,,,,,,,,,,,,,,,,,,,,282.20883772299567,283.7088566179955,283.7088566179955,284.22424450200197,284.7025184619997,None,0,,,,,,,,,,,,,,,,,,,,,,,,,,,,,,,,,,,,,,,,,,,,,,,,,,,,,,,,,,,,,,364,001,2025-05-15_15h30.21.482,Psych121Project_nback_ospan,2024.2.4,60,2025-05-15 15h30.31.191337 -0700,
23,23,0,L,None,   binaural,return,9.234927321995201,None,space,1.4088136610007496,None,None,1,,,,,,,,,,,,,,,,,,,,1,0,1,0,0,23,23,23,,,,,,,,,,,,,,,,,,,,,,,,,,,,,284.72111172899895,,,,,,,,,,,,,,,,,,,,,,284.70447830099874,286.2172891340015,286.2172891340015,286.73353356900043,287.21029180900223,None,1,,,,,,,,,,,,,,,,,,,,,,,,,,,,,,,,,,,,,,,,,,,,,,,,,,,,,,,,,,,,,,364,001,2025-05-15_15h30.21.482,Psych121Project_nback_ospan,2024.2.4,60,2025-05-15 15h30.31.191337 -0700,
24,24,0,K,None,   binaural,return,9.234927321995201,None,space,1.4088136610007496,None,None,1,,,,,,,,,,,,,,,,,,,,1,0,1,0,0,24,24,24,,,,,,,,,,,,,,,,,,,,,,,,,,,,,287.2203946890004,,,,,,,,,,,,,,,,,,,,,,287.2123790139958,288.70736899099575,288.70736899099575,289.2256662619984,289.701016523999,None,1,,,,,,,,,,,,,,,,,,,,,,,,,,,,,,,,,,,,,,,,,,,,,,,,,,,,,,,,,,,,,,364,001,2025-05-15_15h30.21.482,Psych121Project_nback_ospan,2024.2.4,60,2025-05-15 15h30.31.191337 -0700,
25,25,0,P,space,   binaural,return,9.234927321995201,None,space,1.4088136610007496,None,None,0,,,,,,,,,,,,,,,,,,,,1,0,1,0,0,25,25,25,,,,,,,,,,,,,,,,,,,,,,,,,,,,,289.7207810569962,,,,,,,,,,,,,,,,,,,,,,289.70374937199813,291.19561658999737,291.19561658999737,291.7058978519999,292.2010405809997,None,0,,,,,,,,,,,,,,,,,,,,,,,,,,,,,,,,,,,,,,,,,,,,,,,,,,,,,,,,,,,,,,364,001,2025-05-15_15h30.21.482,Psych121Project_nback_ospan,2024.2.4,60,2025-05-15 15h30.31.191337 -0700,
26,26,0,B,None,   binaural,return,9.234927321995201,None,space,1.4088136610007496,None,None,1,,,,,,,,,,,,,,,,,,,,1,0,1,0,0,26,26,26,,,,,,,,,,,,,,,,,,,,,,,,,,,,,292.2195111559995,,,,,,,,,,,,,,,,,,,,,,292.20333396099886,293.71906478299934,293.71906478299934,294.2374661849972,294.7107679319961,None,1,,,,,,,,,,,,,,,,,,,,,,,,,,,,,,,,,,,,,,,,,,,,,,,,,,,,,,,,,,,,,,364,001,2025-05-15_15h30.21.482,Psych121Project_nback_ospan,2024.2.4,60,2025-05-15 15h30.31.191337 -0700,
27,27,0,K,None,   binaural,return,9.234927321995201,None,space,1.4088136610007496,None,None,1,,,,,,,,,,,,,,,,,,,,1,0,1,0,0,27,27,27,,,,,,,,,,,,,,,,,,,,,,,,,,,,,294.7196255509989,,,,,,,,,,,,,,,,,,,,,,294.71276529999886,296.20236734599894,296.20236734599894,296.6954315440016,297.2004449199958,None,1,297.2185112590014,,,,,,,,,,,,,,,,,,,,,,,,,,,,,,,,,,,,,,,,,,,,,,,,,,,,,,,,,,,,,364,001,2025-05-15_15h30.21.482,Psych121Project_nback_ospan,2024.2.4,60,2025-05-15 15h30.31.191337 -0700,
28,28,0,A,None,   binaural,return,9.234927321995201,None,space,1.4088136610007496,None,None,1,,,,,,,,,,,,,,,,,,,,1,0,1,0,0,28,28,28,,,,,,,,,,,,,,,,,,,,,,,,,,,,,297.2185112590014,,,,,,,,,,,,,,,,,,,,,,297.20261261500127,298.7170047089967,298.7170047089967,299.23170595600095,299.7071539519966,None,1,,,,,,,,,,,,,,,,,,,,,,,,,,,,,,,,,,,,,,,,,,,,,,,,,,,,,,,,,,,,,,364,001,2025-05-15_15h30.21.482,Psych121Project_nback_ospan,2024.2.4,60,2025-05-15 15h30.31.191337 -0700,
0,0,0,,,   binaural,return,9.234927321995201,None,space,1.4088136610007496,None,,,,,Operation,None,( 6 - 6 ) × 3 = 0,right,M,None,right,1,2.540242663002573,None,,,,,,,,1,0,1,0,,,,,0,0,0,0,,,,,,,,,,,,,,,,,,,,,,,,,304.7429059240021,,,,,,,,,,,,,,,,,,,,,,,,,,,,,,,,299.71060691899766,299.71935418099747,300.70687721899594,302.7141523800019,302.71421701800136,302.72553580399835,304.71469544799766,304.7356089599998,305.04005181999673,305.04005181999673,307.59896476200083,right,1,2.540242663002573,None,307.6027957780025,307.6139562230019,308.618110039999,,,,,,,,,,,,,,,,,,,,,,,,,,,,,,,,,,,,,,,,,364,001,2025-05-15_15h30.21.482,Psych121Project_nback_ospan,2024.2.4,60,2025-05-15 15h30.31.191337 -0700,
1,1,0,,,   binaural,return,9.234927321995201,None,space,1.4088136610007496,None,,,,,Operation,None,( 1 + 6 ) × 2 = 16,left,E,"['m', 'e']",right,0,0.6277737759955926,None,,,,,,,,1,0,1,0,,,,,0,1,1,1,,,,,,,,,,,,,,,,,,,,,,,,,308.6310010849993,,,,,,,,,,,,,,,,,,,,,,,,,,,,,,,,,,,,,,,308.6237650080002,308.9073640200004,308.9073640200004,309.54257624100137,right,0,0.6277737759955926,None,309.5445923829975,309.55501767499663,310.55810424399533,,,,,,,,,,,,,,,,,,,,,,,,,,,,,,,,,,,,,,,,,364,001,2025-05-15_15h30.21.482,Psych121Project_nback_ospan,2024.2.4,60,2025-05-15 15h30.31.191337 -0700,
0,0,0,,,   binaural,return,9.234927321995201,None,space,1.4088136610007496,None,,,,,Operation,None,( 1 + 7 ) × 3 = 22,left,B,None,right,0,1.7640574909964926,None,None,0,,,space,0.2999740049999673,None,1,0,1,0,,,,,,,,,0,0,0,0,,,,,,,,,,,,,,,,,,,,,313.89980041299714,,,,,,,,,,,,,,,,,,,,,,,,,,,,,,,,,,,,,,,313.89242682499753,314.1644772319996,314.1644772319996,315.9403887610024,,,,,315.9438557999965,315.9546813900015,316.9444977919993,310.5595575490006,310.5679145019967,310.5679145019967,311.0515947910026,311.3634960029958,None,0,,,space,0.2999740049999673,None,311.36363123400224,311.376441235996,313.8648163079997,right,0,1.7640574909964926,None,,,,,,,,,,,,,,,,,,,,,,364,001,2025-05-15_15h30.21.482,Psych121Project_nback_ospan,2024.2.4,60,2025-05-15 15h30.31.191337 -0700,
1,1,0,,,   binaural,return,9.234927321995201,None,space,1.4088136610007496,None,,,,,Operation,None,( 5 + 6 ) × 2 = 22,right,I,None,right,1,3.884617640003853,None,None,0,,,space,0.2999740049999673,None,1,0,1,0,,,,,,,,,0,1,1,1,,,,,,,,,,,,,,,,,,,,,316.957264370998,,,,,,,,,,,,,,,,,,,,,,,,,,,,,,,,,,,,,,,316.9506647859962,317.24096049999935,317.24096049999935,321.1340213279982,,,,,321.13907472400024,321.14798030399834,322.13997990499774,,,,,,,,,,,,,,,,right,1,3.884617640003853,None,,,,,,,,,,,,,,,,,,,,,,364,001,2025-05-15_15h30.21.482,Psych121Project_nback_ospan,2024.2.4,60,2025-05-15 15h30.31.191337 -0700,
2,2,0,,,   binaural,return,9.234927321995201,None,space,1.4088136610007496,None,,,,,Operation,None,( 8 + 7 ) × 1 = 15,right,P,None,right,1,0.5996253250050358,None,None,0,,,space,0.2999740049999673,None,1,0,1,0,,,,,,,,,0,2,2,2,,,,,,,,,,,,,,,,,,,,,322.1523463199992,,,,,,,,,,,,,,,,,,,,,,,,,,,,,,,,,,,,,,,322.144480707997,322.45662555700255,322.45662555700255,323.06671990299947,,,,,323.06953702899773,323.07963663899864,324.07492242499575,,,,,,,,,,,,,,,,right,1,0.5996253250050358,None,,,,,,,,,,,,,,,,,,,,,,364,001,2025-05-15_15h30.21.482,Psych121Project_nback_ospan,2024.2.4,60,2025-05-15 15h30.31.191337 -0700,
3,3,0,,,   binaural,return,9.234927321995201,None,space,1.4088136610007496,None,,,,,Operation,None,( 6 - 6 ) × 2 = 0,right,V,None,right,1,0.7220144699967932,None,None,0,,,space,0.2999740049999673,None,1,0,1,0,,,,,,,,,0,3,3,3,,,,,,,,,,,,,,,,,,,,,324.08739872500155,,,,,,,,,,,,,,,,,,,,,,,,,,,,,,,,,,,,,,,324.08040780999727,324.39101646900235,324.39101646900235,325.1270367179968,,,,,325.12895358199603,325.1393598989962,326.1348231230004,,,,,,,,,,,,,,,,right,1,0.7220144699967932,None,,,,,,,,,,,,,,,,,,,,,,364,001,2025-05-15_15h30.21.482,Psych121Project_nback_ospan,2024.2.4,60,2025-05-15 15h30.31.191337 -0700,
4,4,0,,,   binaural,return,9.234927321995201,None,space,1.4088136610007496,None,,,,,Operation,None,( 8 - 8 ) × 3 = 0,right,G,"['f', 'b', 'i', 'p', 'v']",left,0,0.513585733002401,None,None,0,,,space,0.2999740049999673,None,1,0,1,0,,,,,,,,,0,4,4,4,,,,,,,,,,,,,,,,,,,,,326.1478956630017,,,,,,,,,,,,,,,,,,,,,,,,,,,,,,,,,,,,,,,326.1405520749977,326.4505210569987,326.4505210569987,326.9706111869964,,,,,326.97294615199644,326.98377806999633,327.97008006599935,,,,,,,,,,,,,,,,left,0,0.513585733002401,None,,,,,327.98088189199916,,,,,,,,,,,,,,,,,364,001,2025-05-15_15h30.21.482,Psych121Project_nback_ospan,2024.2.4,60,2025-05-15 15h30.31.191337 -0700,
0,0,0,,,   binaural,return,9.234927321995201,None,space,1.4088136610007496,None,,,,,Operation,None,( 9 - 9 ) × 2 = -2,left,N,None,left,1,0.43503973900078563,None,"['h', 'v']",0,"[1.0288113169954158, 1.1762567760015372]","[0.3121895250005764, 0.11967269799788482]",space,1.601154158001009,None,1,0,1,0,,,,,,,,,,,,,0,0,0,0,,,,,,,,,,,,,,,,,332.6267498439993,,,,,,,,,,,,,,,,,,,,,,,,,,,,,,,,,,,,,,,332.6192392489975,332.89853638299974,332.89853638299974,333.3517714789996,,,,,333.35384153099585,333.36385169500136,334.36085436699796,327.9722315109975,327.98088189199916,327.98088189199916,328.47847791000095,330.09327727699565,"['h', 'v']",0,"[1.0288113169954158, 1.1762567760015372]","[0.3121895250005764, 0.11967269799788482]",space,1.601154158001009,None,330.0935461659974,330.1050542209996,332.60028072800196,,,,,left,1,0.43503973900078563,None,,,,,,,,,,,,,,,,,,364,001,2025-05-15_15h30.21.482,Psych121Project_nback_ospan,2024.2.4,60,2025-05-15 15h30.31.191337 -0700,
1,1,0,,,   binaural,return,9.234927321995201,None,space,1.4088136610007496,None,,,,,Operation,None,( 7 + 7 ) × 3 = 42,right,P,None,right,1,1.6000221209978918,None,"['h', 'v']",0,"[1.0288113169954158, 1.1762567760015372]","[0.3121895250005764, 0.11967269799788482]",space,1.601154158001009,None,1,0,1,0,,,,,,,,,,,,,0,1,1,1,,,,,,,,,,,,,,,,,334.37267081999744,,,,,,,,,,,,,,,,,,,,,,,,,,,,,,,,,,,,,,,334.36507894499664,334.67544899199856,334.67544899199856,336.2916453500002,,,,,336.2939415869987,336.3046282459982,337.29165547299635,,,,,,,,,,,,,,,,,,,,right,1,1.6000221209978918,None,337.304068585996,,,,,,,,,,,,,,,,,364,001,2025-05-15_15h30.21.482,Psych121Project_nback_ospan,2024.2.4,60,2025-05-15 15h30.31.191337 -0700,
2,2,0,,,   binaural,return,9.234927321995201,None,space,1.4088136610007496,None,,,,,Operation,None,( 6 + 1 ) × 2 = 14,right,F,None,left,0,0.874583338998491,None,"['h', 'v']",0,"[1.0288113169954158, 1.1762567760015372]","[0.3121895250005764, 0.11967269799788482]",space,1.601154158001009,None,1,0,1,0,,,,,,,,,,,,,0,2,2,2,,,,,,,,,,,,,,,,,337.304068585996,,,,,,,,,,,,,,,,,,,,,,,,,,,,,,,,,,,,,,,337.2975762279966,337.60623349499656,337.60623349499656,338.4930037480008,,,,,338.49510306099546,338.50632808599767,339.4997515040013,,,,,,,,,,,,,,,,,,,,left,0,0.874583338998491,None,,,,,,,,,,,,,,,,,,364,001,2025-05-15_15h30.21.482,Psych121Project_nback_ospan,2024.2.4,60,2025-05-15 15h30.31.191337 -0700,
3,3,0,,,   binaural,return,9.234927321995201,None,space,1.4088136610007496,None,,,,,Operation,None,( 8 + 9 ) × 1 = 19,left,I,None,left,1,0.9419191939960001,None,"['h', 'v']",0,"[1.0288113169954158, 1.1762567760015372]","[0.3121895250005764, 0.11967269799788482]",space,1.601154158001009,None,1,0,1,0,,,,,,,,,,,,,0,3,3,3,,,,,,,,,,,,,,,,,339.5101111030017,,,,,,,,,,,,,,,,,,,,,,,,,,,,,,,,,,,,,,,339.50459363900154,339.7922571480012,339.7922571480012,340.75290821900126,,,,,340.7551100260025,340.7647949269958,341.75405815799604,,,,,,,,,,,,,,,,,,,,left,1,0.9419191939960001,None,,,,,,,,,,,,,,,,,,364,001,2025-05-15_15h30.21.482,Psych121Project_nback_ospan,2024.2.4,60,2025-05-15 15h30.31.191337 -0700,
4,4,0,,,   binaural,return,9.234927321995201,None,space,1.4088136610007496,None,,,,,Operation,None,( 4 + 3 ) × 3 = 21,right,B,"['r', 'n', 'p', 'f', 'i']",right,1,0.8434000729976106,None,"['h', 'v']",0,"[1.0288113169954158, 1.1762567760015372]","[0.3121895250005764, 0.11967269799788482]",space,1.601154158001009,None,1,0,1,0,,,,,,,,,,,,,0,4,4,4,,,,,,,,,,,,,,,,,341.77428572499775,,,,,,,,,,,,,,,,,,,,,,,,,,,,,,,,,,,,,,,341.7572662169987,342.0739163179969,342.0739163179969,342.9216446479986,,,,,342.9247394100021,342.93409511799837,343.93944008999824,,,,,,,,,,,,,,,,,,,,right,1,0.8434000729976106,None,,,,,,,,,,,,,,,,,,364,001,2025-05-15_15h30.21.482,Psych121Project_nback_ospan,2024.2.4,60,2025-05-15 15h30.31.191337 -0700,
0,0,0,,,   binaural,return,9.234927321995201,None,space,1.4088136610007496,None,,,,,Operation,None,( 6 - 6 ) × 2 = 1,left,K,None,right,0,0.5006145680017653,None,"['c', 'h']",0,"[0.8696320800008834, 1.0578691820046515]","[0.23579904199868906, 0.14404982099949848]",space,1.5107414619997144,None,1,0,1,0,,,,,,,,,,,,,,,,,0,0,0,0,,,,,,,,,,,,,348.4782869539995,,,,,,,,,,,,,,,,,,,,,,,,,,,,,,,,,,,,,,,348.47084076300234,348.7699928000002,348.7699928000002,349.2894206609999,,,,,349.2913845340008,349.30145570899913,350.2912192770018,343.94120687100076,343.9586887510013,343.9586887510013,344.43082982800115,345.9453933449986,"['c', 'h']",0,"[0.8696320800008834, 1.0578691820046515]","[0.23579904199868906, 0.14404982099949848]",space,1.5107414619997144,None,345.94561237799644,345.9602406369959,348.45076602199697,,,,,,,,,,right,0,0.5006145680017653,None,,,,,,,,,,,,,364,001,2025-05-15_15h30.21.482,Psych121Project_nback_ospan,2024.2.4,60,2025-05-15 15h30.31.191337 -0700,
1,1,0,,,   binaural,return,9.234927321995201,None,space,1.4088136610007496,None,,,,,Operation,None,( 2 - 1 ) × 3 = 3,right,P,None,right,1,1.7463422510045348,None,"['c', 'h']",0,"[0.8696320800008834, 1.0578691820046515]","[0.23579904199868906, 0.14404982099949848]",space,1.5107414619997144,None,1,0,1,0,,,,,,,,,,,,,,,,,0,1,1,1,,,,,,,,,,,,,350.3023111119983,,,,,,,,,,,,,,,,,,,,,,,,,,,,,,,,,,,,,,,350.29429723200155,350.5869943719954,350.5869943719954,352.3457296359993,,,,,352.34786193799664,352.35848244000226,353.3559147439955,,,,,,,,,,,,,,,,,,,,,,,,,right,1,1.7463422510045348,None,,,,,,,,,,,,,364,001,2025-05-15_15h30.21.482,Psych121Project_nback_ospan,2024.2.4,60,2025-05-15 15h30.31.191337 -0700,
2,2,0,,,   binaural,return,9.234927321995201,None,space,1.4088136610007496,None,,,,,Operation,None,( 9 - 3 ) × 1 = 6,right,W,None,right,1,0.8931179759965744,None,"['c', 'h']",0,"[0.8696320800008834, 1.0578691820046515]","[0.23579904199868906, 0.14404982099949848]",space,1.5107414619997144,None,1,0,1,0,,,,,,,,,,,,,,,,,0,2,2,2,,,,,,,,,,,,,353.36686070699943,,,,,,,,,,,,,,,,,,,,,,,,,,,,,,,,,,,,,,,353.3590481430001,353.6518475539997,353.6518475539997,354.5520562469974,,,,,354.55474881899863,354.56424406999577,355.55874806499924,,,,,,,,,,,,,,,,,,,,,,,,,right,1,0.8931179759965744,None,,,,,,,,,,,,,364,001,2025-05-15_15h30.21.482,Psych121Project_nback_ospan,2024.2.4,60,2025-05-15 15h30.31.191337 -0700,
3,3,0,,,   binaural,return,9.234927321995201,None,space,1.4088136610007496,None,,,,,Operation,None,( 9 - 3 ) × 1 = 7,left,Y,None,right,0,0.44297671799722593,None,"['c', 'h']",0,"[0.8696320800008834, 1.0578691820046515]","[0.23579904199868906, 0.14404982099949848]",space,1.5107414619997144,None,1,0,1,0,,,,,,,,,,,,,,,,,0,3,3,3,,,,,,,,,,,,,355.5713825769999,,,,,,,,,,,,,,,,,,,,,,,,,,,,,,,,,,,,,,,355.5629288229975,355.87357551699824,355.87357551699824,356.3300653510014,,,,,356.3320978529955,356.3430048099981,357.34879795699817,,,,,,,,,,,,,,,,,,,,,,,,,right,0,0.44297671799722593,None,,,,,,,,,,,,,364,001,2025-05-15_15h30.21.482,Psych121Project_nback_ospan,2024.2.4,60,2025-05-15 15h30.31.191337 -0700,
4,4,0,,,   binaural,return,9.234927321995201,None,space,1.4088136610007496,None,,,,,Operation,None,( 8 + 9 ) × 1 = 17,right,E,"['l', 'k', 'p', 'w', 'y']",right,1,0.7254399009980261,None,"['c', 'h']",0,"[0.8696320800008834, 1.0578691820046515]","[0.23579904199868906, 0.14404982099949848]",space,1.5107414619997144,None,1,0,1,0,,,,,,,,,,,,,,,,,0,4,4,4,,,,,,,,,,,,,357.3601790719986,,,,,,,,,,,,,,,,,,,,,,,,,,,,,,,,,,,,,,,357.35228628299956,357.6294258179987,357.6294258179987,358.35739805400226,,,,,358.3632938180017,358.371097260002,359.37496166100027,,,,,,,,,,,,,,,,,,,,,,,,,right,1,0.7254399009980261,None,,,,,,,,,,,,,364,001,2025-05-15_15h30.21.482,Psych121Project_nback_ospan,2024.2.4,60,2025-05-15 15h30.31.191337 -0700,
0,0,0,,,   binaural,return,9.234927321995201,None,space,1.4088136610007496,None,,,,,Operation,None,( 1 + 8 ) × 1 = 11,left,R,None,right,0,0.5024058929993771,None,"['f', 'g', 'f']",0,"[0.7123788910030271, 0.7984067330035032, 0.9199737160015502]","[0.03646578500047326, 0.10426912799448473, 0.07634447199961869]",space,1.3362599360043532,None,1,0,1,0,,,,,,,,,,,,,,,,,,,,,0,0,0,0,,,,,,,,,363.7519461560005,,,,,,,,,,,,,,,,,,,,,,,,,,,,,,,,,,,,,,,363.744554830002,364.0218271229969,364.0218271229969,364.542329816999,,,,,364.54430748800223,364.5552210570022,365.5466336140016,359.3765114859998,359.3932397999961,359.3932397999961,359.86704595800256,361.2155271419979,"['f', 'g', 'f']",0,"[0.7123788910030271, 0.7984067330035032, 0.9199737160015502]","[0.03646578500047326, 0.10426912799448473, 0.07634447199961869]",space,1.3362599360043532,None,361.2156570869993,361.22747656200227,363.7244762249975,,,,,,,,,,,,,,right,0,0.5024058929993771,None,,,,,,,,,364,001,2025-05-15_15h30.21.482,Psych121Project_nback_ospan,2024.2.4,60,2025-05-15 15h30.31.191337 -0700,
1,1,0,,,   binaural,return,9.234927321995201,None,space,1.4088136610007496,None,,,,,Operation,None,( 4 + 2 ) × 2 = 12,right,Z,None,right,1,4.09666106000077,None,"['f', 'g', 'f']",0,"[0.7123788910030271, 0.7984067330035032, 0.9199737160015502]","[0.03646578500047326, 0.10426912799448473, 0.07634447199961869]",space,1.3362599360043532,None,1,0,1,0,,,,,,,,,,,,,,,,,,,,,0,1,1,1,,,,,,,,,365.5575917140013,,,,,,,,,,,,,,,,,,,,,,,,,,,,,,,,,,,,,,,365.5497766819972,365.8427820919969,365.8427820919969,369.95966662200226,,,,,369.961612703999,369.9724186609965,370.9580166289961,,,,,,,,,,,,,,,,,,,,,,,,370.9690419440012,,,,,right,1,4.09666106000077,None,,,,,,,,,364,001,2025-05-15_15h30.21.482,Psych121Project_nback_ospan,2024.2.4,60,2025-05-15 15h30.31.191337 -0700,
2,2,0,,,   binaural,return,9.234927321995201,None,space,1.4088136610007496,None,,,,,Operation,None,( 5 - 9 ) × 2 = -8,right,P,None,right,1,1.57749597899965,None,"['f', 'g', 'f']",0,"[0.7123788910030271, 0.7984067330035032, 0.9199737160015502]","[0.03646578500047326, 0.10426912799448473, 0.07634447199961869]",space,1.3362599360043532,None,1,0,1,0,,,,,,,,,,,,,,,,,,,,,0,2,2,2,,,,,,,,,370.9690419440012,,,,,,,,,,,,,,,,,,,,,,,,,,,,,,,,,,,,,,,370.96213443300076,371.2734032439985,371.2734032439985,372.86121764499694,,,,,372.863203394998,372.8738031679968,373.878062582,,,,,,,,,,,,,,,,,,,,,,,,,,,,,right,1,1.57749597899965,None,,,,,,,,,364,001,2025-05-15_15h30.21.482,Psych121Project_nback_ospan,2024.2.4,60,2025-05-15 15h30.31.191337 -0700,
3,3,0,,,   binaural,return,9.234927321995201,None,space,1.4088136610007496,None,,,,,Operation,None,( 8 + 5 ) × 2 = 26,right,Y,None,right,1,5.41894735799724,None,"['f', 'g', 'f']",0,"[0.7123788910030271, 0.7984067330035032, 0.9199737160015502]","[0.03646578500047326, 0.10426912799448473, 0.07634447199961869]",space,1.3362599360043532,None,1,0,1,0,,,,,,,,,,,,,,,,,,,,,0,3,3,3,,,,,,,,,373.8891682850008,,,,,,,,,,,,,,,,,,,,,,,,,,,,,,,,,,,,,,,373.88192313400214,374.1714750749961,374.1714750749961,379.5986703419985,,,,,379.6028006580018,379.6116676340025,380.60397399999783,,,,,,,,,,,,,,,,,,,,,,,,,,,,,right,1,5.41894735799724,None,,,,,,,,,364,001,2025-05-15_15h30.21.482,Psych121Project_nback_ospan,2024.2.4,60,2025-05-15 15h30.31.191337 -0700,
4,4,0,,,   binaural,return,9.234927321995201,None,space,1.4088136610007496,None,,,,,Operation,None,( 1 + 1 ) × 1 = 3,left,S,"['e', 'r', 'z', 'p', 'y']",right,0,10.4785940139991,None,"['f', 'g', 'f']",0,"[0.7123788910030271, 0.7984067330035032, 0.9199737160015502]","[0.03646578500047326, 0.10426912799448473, 0.07634447199961869]",space,1.3362599360043532,None,1,0,1,0,,,,,,,,,,,,,,,,,,,,,0,4,4,4,,,,,,,,,380.6228677909967,,,,,,,,,,,,,,,,,,,,,,,,,,,,,,,,,,,,,,,380.6069443590022,380.92225120299554,380.92225120299554,391.41578109400143,,,,,391.4240915939954,391.44232795599964,392.4321693059974,,,,,,,,,,,,,,,,,,,,,,,,,,,,,right,0,10.4785940139991,None,,,,,,,,,364,001,2025-05-15_15h30.21.482,Psych121Project_nback_ospan,2024.2.4,60,2025-05-15 15h30.31.191337 -0700,
0,0,0,,,   binaural,return,9.234927321995201,None,space,1.4088136610007496,None,,,,,Operation,None,( 2 + 7 ) × 2 = 18,right,O,None,right,1,2.679903477001062,None,"['h', 'g', 'c', 'h']",0,"[0.41979622700455366, 0.43580231400119374, 0.1289658249952481, 0.17816784599563107]","[0.08366269899852341, 0.14013318400247954, 0.016471593000460416, 0.052309894999780226]",space,0.36236317299335497,None,1,0,1,0,,,,,,,,,,,,,,,,,,,,,,,,,0,0,0,0,,,,,395.94899481199536,,,,,,,,,,,,,,,,,,,,,,,,,,,,,,,,,,,,,,,395.94143979699584,396.10633500399854,396.10633500399854,398.7989143300001,,,,,398.8016024039971,398.8104686489969,399.80213665899646,392.4375604759989,392.4470667169953,392.4470667169953,392.9257762670022,393.30314490100136,"['h', 'g', 'c', 'h']",0,"[0.41979622700455366, 0.43580231400119374, 0.1289658249952481, 0.17816784599563107]","[0.08366269899852341, 0.14013318400247954, 0.016471593000460416, 0.052309894999780226]",space,0.36236317299335497,None,393.30332276199624,393.315521960998,395.81907993299683,,,,,,,,,,,,,,,,,,right,1,2.679903477001062,None,,,,,364,001,2025-05-15_15h30.21.482,Psych121Project_nback_ospan,2024.2.4,60,2025-05-15 15h30.31.191337 -0700,
1,1,0,,,   binaural,return,9.234927321995201,None,space,1.4088136610007496,None,,,,,Operation,None,( 2 + 6 ) × 2 = 17,left,J,None,right,0,4.513772593003523,None,"['h', 'g', 'c', 'h']",0,"[0.41979622700455366, 0.43580231400119374, 0.1289658249952481, 0.17816784599563107]","[0.08366269899852341, 0.14013318400247954, 0.016471593000460416, 0.052309894999780226]",space,0.36236317299335497,None,1,0,1,0,,,,,,,,,,,,,,,,,,,,,,,,,0,1,1,1,,,,,399.8115358869982,,,,,,,,,,,,,,,,,,,,,,,,,,,,,,,,,,,,,,,399.80647073999717,400.1069767430017,400.1069767430017,404.640919477999,,,,,404.6482760180006,404.6553335060016,405.6437203559981,,,,,,,,,,,,,,,,,,,,,,,,,,,,,,,,,right,0,4.513772593003523,None,,,,,364,001,2025-05-15_15h30.21.482,Psych121Project_nback_ospan,2024.2.4,60,2025-05-15 15h30.31.191337 -0700,
2,2,0,,,   binaural,return,9.234927321995201,None,space,1.4088136610007496,None,,,,,Operation,None,( 5 - 5 ) × 1 = 1,left,G,None,right,0,8.32760564199998,None,"['h', 'g', 'c', 'h']",0,"[0.41979622700455366, 0.43580231400119374, 0.1289658249952481, 0.17816784599563107]","[0.08366269899852341, 0.14013318400247954, 0.016471593000460416, 0.052309894999780226]",space,0.36236317299335497,None,1,0,1,0,,,,,,,,,,,,,,,,,,,,,,,,,0,2,2,2,,,,,405.6618350810022,,,,,,,,,,,,,,,,,,,,,,,,,,,,,,,,,,,,,,,405.6536919299979,405.96605516099953,405.96605516099953,414.30762835899804,,,,,414.31339313199715,414.3254266090007,415.30852633700124,,,,,,,,,,,,,,,,,,,,,,,,,,,,,,,,,right,0,8.32760564199998,None,,,,,364,001,2025-05-15_15h30.21.482,Psych121Project_nback_ospan,2024.2.4,60,2025-05-15 15h30.31.191337 -0700,
3,3,0,,,   binaural,return,9.234927321995201,None,space,1.4088136610007496,None,,,,,Operation,None,( 2 + 4 ) × 1 = 6,right,B,None,right,1,0.7460226679977495,None,"['h', 'g', 'c', 'h']",0,"[0.41979622700455366, 0.43580231400119374, 0.1289658249952481, 0.17816784599563107]","[0.08366269899852341, 0.14013318400247954, 0.016471593000460416, 0.052309894999780226]",space,0.36236317299335497,None,1,0,1,0,,,,,,,,,,,,,,,,,,,,,,,,,0,3,3,3,,,,,415.3248150329964,,,,,,,,,,,,,,,,,,,,,,,,,,,,,,,,,,,,,,,415.31767095300165,415.615281624996,415.615281624996,416.3664185640009,,,,,416.37156311099534,416.3826117549979,417.3802205300017,,,,,,,,,,,,,,,,,,,,,,,,,,,,,,,,,right,1,0.7460226679977495,None,,,,,364,001,2025-05-15_15h30.21.482,Psych121Project_nback_ospan,2024.2.4,60,2025-05-15 15h30.31.191337 -0700,
4,4,0,,,   binaural,return,9.234927321995201,None,space,1.4088136610007496,None,,,,,Operation,None,( 7 + 3 ) × 3 = 30,right,O,"['s', 'o', 'j', 'g', 'b']",right,1,0.7407996120018652,None,"['h', 'g', 'c', 'h']",0,"[0.41979622700455366, 0.43580231400119374, 0.1289658249952481, 0.17816784599563107]","[0.08366269899852341, 0.14013318400247954, 0.016471593000460416, 0.052309894999780226]",space,0.36236317299335497,None,1,0,1,0,,,,,,,,,,,,,,,,,,,,,,,,,0,4,4,4,,,,,417.3934879669978,,,,,,,,,,,,,,,,,,,,,,,,,,,,,,,,,,,,,,,417.38682405099826,417.6917556339977,417.6917556339977,418.439694531,,,,,418.4425018559996,418.4539346439997,419.4503717830012,,,,,,,,,,,,,,,,,,,,,,,,,,,,,,,,,right,1,0.7407996120018652,None,,,,,364,001,2025-05-15_15h30.21.482,Psych121Project_nback_ospan,2024.2.4,60,2025-05-15 15h30.31.191337 -0700,
0,0,0,,,   binaural,return,9.234927321995201,None,space,1.4088136610007496,None,,,,,Operation,None,( 6 + 6 ) × 1 = 12,right,U,None,right,1,0.6269240000037826,None,"['l', 'j']",0,"[0.9499730820025434, 0.9715469000002486]","[0.05181171699950937, 0.18240681599854724]",space,1.2848992299987003,None,1,0,1,0,,,,,,,,,,,,,,,,,,,,,,,,,,,,,0,0,0,0,423.8052959229972,,,,,,,,,,,,,,,,,,,,,,,,,,,,,,,,,,,,,,,423.79789573499875,424.05975665200094,424.05975665200094,424.6990860320002,,,,,424.7037828559987,424.71356945599837,425.709576098001,419.4533143000008,419.4606770419996,419.4606770419996,419.96409420899727,421.2588713349978,"['l', 'j']",0,"[0.9499730820025434, 0.9715469000002486]","[0.05181171699950937, 0.18240681599854724]",space,1.2848992299987003,None,421.2592023260004,421.27766646099917,423.7673489039953,,,,,,,,,,,,,,,,,,,,,,right,1,0.6269240000037826,None,364,001,2025-05-15_15h30.21.482,Psych121Project_nback_ospan,2024.2.4,60,2025-05-15 15h30.31.191337 -0700,
1,1,0,,,   binaural,return,9.234927321995201,None,space,1.4088136610007496,None,,,,,Operation,None,( 3 + 5 ) × 1 = 8,right,L,None,right,1,0.4817273680018843,None,"['l', 'j']",0,"[0.9499730820025434, 0.9715469000002486]","[0.05181171699950937, 0.18240681599854724]",space,1.2848992299987003,None,1,0,1,0,,,,,,,,,,,,,,,,,,,,,,,,,,,,,0,1,1,1,425.7208136650006,,,,,,,,,,,,,,,,,,,,,,,,,,,,,,,,,,,,,,,425.7133885610019,426.00426951299596,426.00426951299596,426.49593512700085,,,,,426.498443835997,426.5069919480011,427.5038058450009,,,,,,,,,,,,,,,,,,,,,,,,,,,,,,,,,,,,,right,1,0.4817273680018843,None,364,001,2025-05-15_15h30.21.482,Psych121Project_nback_ospan,2024.2.4,60,2025-05-15 15h30.31.191337 -0700,
2,2,0,,,   binaural,return,9.234927321995201,None,space,1.4088136610007496,None,,,,,Operation,None,( 3 - 5 ) × 2 = -5,left,B,None,right,0,0.4409899050006061,None,"['l', 'j']",0,"[0.9499730820025434, 0.9715469000002486]","[0.05181171699950937, 0.18240681599854724]",space,1.2848992299987003,None,1,0,1,0,,,,,,,,,,,,,,,,,,,,,,,,,,,,,0,2,2,2,427.5152982799991,,,,,,,,,,,,,,,,,,,,,,,,,,,,,,,,,,,,,,,427.5100337679978,427.8178952800008,427.8178952800008,428.27815145199565,,,,,428.2820022960004,428.29194948999793,429.2856111500005,,,,,,,,,,,,,,,,,,,,,,,,,,,,,,,,,,,,,right,0,0.4409899050006061,None,364,001,2025-05-15_15h30.21.482,Psych121Project_nback_ospan,2024.2.4,60,2025-05-15 15h30.31.191337 -0700,
3,3,0,,,   binaural,return,9.234927321995201,None,space,1.4088136610007496,None,,,,,Operation,None,( 6 - 5 ) × 2 = 0,left,K,None,right,0,0.7797197010004311,None,"['l', 'j']",0,"[0.9499730820025434, 0.9715469000002486]","[0.05181171699950937, 0.18240681599854724]",space,1.2848992299987003,None,1,0,1,0,,,,,,,,,,,,,,,,,,,,,,,,,,,,,0,3,3,3,429.30337508700177,,,,,,,,,,,,,,,,,,,,,,,,,,,,,,,,,,,,,,,429.29633767499763,429.58123270000215,429.58123270000215,430.3693953129987,,,,,430.3747852759989,430.38671366500057,431.3721147050019,,,,,,,,,,,,,,,,,,,,,,,,,,,,,,,,,,,,,right,0,0.7797197010004311,None,364,001,2025-05-15_15h30.21.482,Psych121Project_nback_ospan,2024.2.4,60,2025-05-15 15h30.31.191337 -0700,
4,4,0,,,   binaural,return,9.234927321995201,None,space,1.4088136610007496,None,,,,,Operation,None,( 3 - 1 ) × 1 = 3,left,R,"['g', 'u', 'l', 'b', 'k']",right,0,1.4875354850009899,None,"['l', 'j']",0,"[0.9499730820025434, 0.9715469000002486]","[0.05181171699950937, 0.18240681599854724]",space,1.2848992299987003,None,1,0,1,0,,,,,,,,,,,,,,,,,,,,,,,,,,,,,0,4,4,4,431.38520995900035,,,,,,,,,,,,,,,,,,,,,,,,,,,,,,,,,,,,,,,431.37695921499835,431.6644043510023,431.6644043510023,433.1620410069954,,,,,433.16383218899864,433.1739806650003,434.168377107002,,,,,,,,,,,,,,,,,,,,,,,,,,,,,,,,,,,,,right,0,1.4875354850009899,None,364,001,2025-05-15_15h30.21.482,Psych121Project_nback_ospan,2024.2.4,60,2025-05-15 15h30.31.191337 -0700,
1,0,1,,,   binaural,return,9.234927321995201,None,space,1.4088136610007496,None,,,,,,,,,,,,,,,"['j', 'b', 'h']",0,"[1.2467964789975667, 1.2584983959968667, 1.2744351060027839]","[0.15159447300538886, 0.033307854006125126, 0.2726726580003742]",space,1.72962772900064,None,1,0,1,0,,,,,,,,,,,,,,,,,,,,,,,,,,,,,,,,,,,,,,,,,,,,,,,,,,,,,,,,,,,,,,,,,,,,,,,,,,,,,,,,,,,434.17153187299846,434.1811856459972,434.1811856459972,434.66691010599607,436.4084320569964,"['j', 'b', 'h']",0,"[1.2467964789975667, 1.2584983959968667, 1.2744351060027839]","[0.15159447300538886, 0.033307854006125126, 0.2726726580003742]",space,1.72962772900064,None,,,,,,,,,,,,,,,,,,,,,,,,,,,,,364,001,2025-05-15_15h30.21.482,Psych121Project_nback_ospan,2024.2.4,60,2025-05-15 15h30.31.191337 -0700,
2,0,2,,,,,,,,,,,,,,,,,,,,,,,,,,,,,,,2,0,2,0,,,,,,,,,,,,,,,,,,,,,,,,,,,,,,,,,436.4390073510003,,436.4091561469977,436.40928720599914,436.41295370100124,436.4131620479966,436.415309516,436.4390073510003,436.4390073510003,436.4390073510003,439.9148543639967,  silence,return,3.4596820160004427,None,439.91499893199943,439.92895837200194,440.41548049399717,,,,,,,,,,,,,,,,,,,,,,,,,,,,,,,,,,,,,,,,,,,,,,,,,,,,,,,,,,,,,,,,,,,,,,,,,,,,,,,,
